"subID","block","trial","response","rt","objrewardstim","facerewardstim","scenerewardstim","trialtype","feedback","obj1stim","obj2stim","face1stim","face2stim","scene1stim","scene2stim","RewardCat","trialnum","strippedtrialtype","correctresponses","StimRewardType","Instance","subid","Gender","ExactAge","AgeGroup"
"MotER_500",1,"0","1","1285","1","1","2","face12F","0","jupitercard.png","mooncard.png","mancard2.png","womancard.png","outdoorcard.png","indoorcard.png","e",1,"face",1,"high",1,500,0,20.66575342,1
"MotER_500",1,"2","2","1479","1","1","2","face12T","0","jupitercard.png","mooncard.png","mancard2.png","womancard.png","outdoorcard.png","indoorcard.png","e",3,"face",0,"high",2,500,0,20.66575342,1
"MotER_500",1,"3","1","1710","1","1","2","face12T","1","jupitercard.png","mooncard.png","mancard2.png","womancard.png","outdoorcard.png","indoorcard.png","e",4,"face",1,"high",3,500,0,20.66575342,1
"MotER_500",1,"9","1","1135","1","1","2","face12F","0","jupitercard.png","mooncard.png","mancard2.png","womancard.png","outdoorcard.png","indoorcard.png","e",10,"face",1,"high",4,500,0,20.66575342,1
"MotER_500",1,"14","1","1490","1","1","2","face12T","1","jupitercard.png","mooncard.png","mancard2.png","womancard.png","outdoorcard.png","indoorcard.png","e",15,"face",1,"high",5,500,0,20.66575342,1
"MotER_500",1,"16","1","895","1","1","2","face12T","1","jupitercard.png","mooncard.png","mancard2.png","womancard.png","outdoorcard.png","indoorcard.png","e",17,"face",1,"high",6,500,0,20.66575342,1
"MotER_500",1,"18","1","1049","1","1","2","face12T","1","jupitercard.png","mooncard.png","mancard2.png","womancard.png","outdoorcard.png","indoorcard.png","e",19,"face",1,"high",7,500,0,20.66575342,1
"MotER_500",1,"20","1","694","1","1","2","face12F","0","jupitercard.png","mooncard.png","mancard2.png","womancard.png","outdoorcard.png","indoorcard.png","e",21,"face",1,"high",8,500,0,20.66575342,1
"MotER_500",1,"23","1","694","1","1","2","face12T","1","jupitercard.png","mooncard.png","mancard2.png","womancard.png","outdoorcard.png","indoorcard.png","e",24,"face",1,"high",9,500,0,20.66575342,1
"MotER_500",1,"26","1","520","1","1","2","face12T","1","jupitercard.png","mooncard.png","mancard2.png","womancard.png","outdoorcard.png","indoorcard.png","e",27,"face",1,"high",10,500,0,20.66575342,1
"MotER_500",2,"8","1","891","1","1","2","face12F","0","jupitercard.png","mooncard.png","mancard2.png","womancard.png","outdoorcard.png","indoorcard.png","e",39,"face",1,"high",11,500,0,20.66575342,1
"MotER_500",2,"10","1","578","1","1","2","face12T","1","jupitercard.png","mooncard.png","mancard2.png","womancard.png","outdoorcard.png","indoorcard.png","e",41,"face",1,"high",12,500,0,20.66575342,1
"MotER_500",2,"11","1","647","1","1","2","face12T","1","jupitercard.png","mooncard.png","mancard2.png","womancard.png","outdoorcard.png","indoorcard.png","e",42,"face",1,"high",13,500,0,20.66575342,1
"MotER_500",2,"13","1","889","1","1","2","face12T","1","jupitercard.png","mooncard.png","mancard2.png","womancard.png","outdoorcard.png","indoorcard.png","e",44,"face",1,"high",14,500,0,20.66575342,1
"MotER_500",2,"15","1","424","1","1","2","face12T","1","jupitercard.png","mooncard.png","mancard2.png","womancard.png","outdoorcard.png","indoorcard.png","e",46,"face",1,"high",15,500,0,20.66575342,1
"MotER_500",2,"16","1","588","1","1","2","face12F","0","jupitercard.png","mooncard.png","mancard2.png","womancard.png","outdoorcard.png","indoorcard.png","e",47,"face",1,"high",16,500,0,20.66575342,1
"MotER_500",2,"17","1","518","1","1","2","face12T","1","jupitercard.png","mooncard.png","mancard2.png","womancard.png","outdoorcard.png","indoorcard.png","e",48,"face",1,"high",17,500,0,20.66575342,1
"MotER_500",2,"21","1","698","1","1","2","face12T","1","jupitercard.png","mooncard.png","mancard2.png","womancard.png","outdoorcard.png","indoorcard.png","e",52,"face",1,"high",18,500,0,20.66575342,1
"MotER_500",2,"22","1","701","1","1","2","face12T","1","jupitercard.png","mooncard.png","mancard2.png","womancard.png","outdoorcard.png","indoorcard.png","e",53,"face",1,"high",19,500,0,20.66575342,1
"MotER_500",2,"25","1","941","1","1","2","face12F","0","jupitercard.png","mooncard.png","mancard2.png","womancard.png","outdoorcard.png","indoorcard.png","e",56,"face",1,"high",20,500,0,20.66575342,1
"MotER_500",3,"3","1","558","1","1","2","face12T","1","jupitercard.png","mooncard.png","mancard2.png","womancard.png","outdoorcard.png","indoorcard.png","e",64,"face",1,"high",21,500,0,20.66575342,1
"MotER_500",3,"4","1","537","1","1","2","face12T","1","jupitercard.png","mooncard.png","mancard2.png","womancard.png","outdoorcard.png","indoorcard.png","e",65,"face",1,"high",22,500,0,20.66575342,1
"MotER_500",3,"5","1","499","1","1","2","face12T","1","jupitercard.png","mooncard.png","mancard2.png","womancard.png","outdoorcard.png","indoorcard.png","e",66,"face",1,"high",23,500,0,20.66575342,1
"MotER_500",3,"14","1","875","1","1","2","face12T","1","jupitercard.png","mooncard.png","mancard2.png","womancard.png","outdoorcard.png","indoorcard.png","e",75,"face",1,"high",24,500,0,20.66575342,1
"MotER_500",3,"18","1","595","1","1","2","face12T","1","jupitercard.png","mooncard.png","mancard2.png","womancard.png","outdoorcard.png","indoorcard.png","e",79,"face",1,"high",25,500,0,20.66575342,1
"MotER_500",3,"22","1","1075","1","1","2","face12F","0","jupitercard.png","mooncard.png","mancard2.png","womancard.png","outdoorcard.png","indoorcard.png","e",83,"face",1,"high",26,500,0,20.66575342,1
"MotER_500",3,"23","1","552","1","1","2","face12T","1","jupitercard.png","mooncard.png","mancard2.png","womancard.png","outdoorcard.png","indoorcard.png","e",84,"face",1,"high",27,500,0,20.66575342,1
"MotER_500",3,"26","1","611","1","1","2","face12T","1","jupitercard.png","mooncard.png","mancard2.png","womancard.png","outdoorcard.png","indoorcard.png","e",87,"face",1,"high",28,500,0,20.66575342,1
"MotER_500",3,"28","1","917","1","1","2","face12F","0","jupitercard.png","mooncard.png","mancard2.png","womancard.png","outdoorcard.png","indoorcard.png","e",89,"face",1,"high",29,500,0,20.66575342,1
"MotER_500",3,"29","1","596","1","1","2","face12F","0","jupitercard.png","mooncard.png","mancard2.png","womancard.png","outdoorcard.png","indoorcard.png","e",90,"face",1,"high",30,500,0,20.66575342,1
"MotER_500",4,"0","1","538","1","1","2","face12F","0","jupitercard.png","mooncard.png","mancard2.png","womancard.png","outdoorcard.png","indoorcard.png","e",91,"face",1,"high",31,500,0,20.66575342,1
"MotER_500",4,"4","1","937","1","1","2","face12T","1","jupitercard.png","mooncard.png","mancard2.png","womancard.png","outdoorcard.png","indoorcard.png","e",95,"face",1,"high",32,500,0,20.66575342,1
"MotER_500",4,"8","1","420","1","1","2","face12T","1","jupitercard.png","mooncard.png","mancard2.png","womancard.png","outdoorcard.png","indoorcard.png","e",99,"face",1,"high",33,500,0,20.66575342,1
"MotER_500",4,"9","1","630","1","1","2","face12T","1","jupitercard.png","mooncard.png","mancard2.png","womancard.png","outdoorcard.png","indoorcard.png","e",100,"face",1,"high",34,500,0,20.66575342,1
"MotER_500",4,"12","1","659","1","1","2","face12T","1","jupitercard.png","mooncard.png","mancard2.png","womancard.png","outdoorcard.png","indoorcard.png","e",103,"face",1,"high",35,500,0,20.66575342,1
"MotER_500",4,"17","1","678","1","1","2","face12T","1","jupitercard.png","mooncard.png","mancard2.png","womancard.png","outdoorcard.png","indoorcard.png","e",108,"face",1,"high",36,500,0,20.66575342,1
"MotER_500",4,"20","1","998","1","1","2","face12T","1","jupitercard.png","mooncard.png","mancard2.png","womancard.png","outdoorcard.png","indoorcard.png","e",111,"face",1,"high",37,500,0,20.66575342,1
"MotER_500",4,"21","1","589","1","1","2","face12T","1","jupitercard.png","mooncard.png","mancard2.png","womancard.png","outdoorcard.png","indoorcard.png","e",112,"face",1,"high",38,500,0,20.66575342,1
"MotER_500",4,"22","1","525","1","1","2","face12F","0","jupitercard.png","mooncard.png","mancard2.png","womancard.png","outdoorcard.png","indoorcard.png","e",113,"face",1,"high",39,500,0,20.66575342,1
"MotER_500",4,"26","1","887","1","1","2","face12F","0","jupitercard.png","mooncard.png","mancard2.png","womancard.png","outdoorcard.png","indoorcard.png","e",117,"face",1,"high",40,500,0,20.66575342,1
"MotER_500",5,"1","1","748","1","1","2","face12T","1","jupitercard.png","mooncard.png","mancard2.png","womancard.png","outdoorcard.png","indoorcard.png","e",122,"face",1,"high",41,500,0,20.66575342,1
"MotER_500",5,"5","1","660","1","1","2","face12T","1","jupitercard.png","mooncard.png","mancard2.png","womancard.png","outdoorcard.png","indoorcard.png","e",126,"face",1,"high",42,500,0,20.66575342,1
"MotER_500",5,"10","1","702","1","1","2","face12T","1","jupitercard.png","mooncard.png","mancard2.png","womancard.png","outdoorcard.png","indoorcard.png","e",131,"face",1,"high",43,500,0,20.66575342,1
"MotER_500",5,"16","1","1051","1","1","2","face12F","0","jupitercard.png","mooncard.png","mancard2.png","womancard.png","outdoorcard.png","indoorcard.png","e",137,"face",1,"high",44,500,0,20.66575342,1
"MotER_500",5,"20","1","1034","1","1","2","face12F","0","jupitercard.png","mooncard.png","mancard2.png","womancard.png","outdoorcard.png","indoorcard.png","e",141,"face",1,"high",45,500,0,20.66575342,1
"MotER_500",5,"21","1","508","1","1","2","face12T","1","jupitercard.png","mooncard.png","mancard2.png","womancard.png","outdoorcard.png","indoorcard.png","e",142,"face",1,"high",46,500,0,20.66575342,1
"MotER_500",5,"23","1","647","1","1","2","face12F","0","jupitercard.png","mooncard.png","mancard2.png","womancard.png","outdoorcard.png","indoorcard.png","e",144,"face",1,"high",47,500,0,20.66575342,1
"MotER_500",5,"24","1","453","1","1","2","face12T","1","jupitercard.png","mooncard.png","mancard2.png","womancard.png","outdoorcard.png","indoorcard.png","e",145,"face",1,"high",48,500,0,20.66575342,1
"MotER_500",5,"27","1","671","1","1","2","face12T","1","jupitercard.png","mooncard.png","mancard2.png","womancard.png","outdoorcard.png","indoorcard.png","e",148,"face",1,"high",49,500,0,20.66575342,1
"MotER_500",5,"28","1","393","1","1","2","face12T","1","jupitercard.png","mooncard.png","mancard2.png","womancard.png","outdoorcard.png","indoorcard.png","e",149,"face",1,"high",50,500,0,20.66575342,1
"MotER_500",6,"1","1","1146","1","1","2","face12F","0","jupitercard.png","mooncard.png","mancard2.png","womancard.png","outdoorcard.png","indoorcard.png","e",152,"face",1,"high",51,500,0,20.66575342,1
"MotER_500",6,"2","1","476","1","1","2","face12T","1","jupitercard.png","mooncard.png","mancard2.png","womancard.png","outdoorcard.png","indoorcard.png","e",153,"face",1,"high",52,500,0,20.66575342,1
"MotER_500",6,"3","1","676","1","1","2","face12T","1","jupitercard.png","mooncard.png","mancard2.png","womancard.png","outdoorcard.png","indoorcard.png","e",154,"face",1,"high",53,500,0,20.66575342,1
"MotER_500",6,"4","1","555","1","1","2","face12T","1","jupitercard.png","mooncard.png","mancard2.png","womancard.png","outdoorcard.png","indoorcard.png","e",155,"face",1,"high",54,500,0,20.66575342,1
"MotER_500",6,"16","1","621","1","1","2","face12T","1","jupitercard.png","mooncard.png","mancard2.png","womancard.png","outdoorcard.png","indoorcard.png","e",167,"face",1,"high",55,500,0,20.66575342,1
"MotER_500",6,"17","1","554","1","1","2","face12F","0","jupitercard.png","mooncard.png","mancard2.png","womancard.png","outdoorcard.png","indoorcard.png","e",168,"face",1,"high",56,500,0,20.66575342,1
"MotER_500",6,"19","1","482","1","1","2","face12T","1","jupitercard.png","mooncard.png","mancard2.png","womancard.png","outdoorcard.png","indoorcard.png","e",170,"face",1,"high",57,500,0,20.66575342,1
"MotER_500",6,"20","1","480","1","1","2","face12F","0","jupitercard.png","mooncard.png","mancard2.png","womancard.png","outdoorcard.png","indoorcard.png","e",171,"face",1,"high",58,500,0,20.66575342,1
"MotER_500",6,"26","1","648","1","1","2","face12T","1","jupitercard.png","mooncard.png","mancard2.png","womancard.png","outdoorcard.png","indoorcard.png","e",177,"face",1,"high",59,500,0,20.66575342,1
"MotER_500",6,"27","1","514","1","1","2","face12T","1","jupitercard.png","mooncard.png","mancard2.png","womancard.png","outdoorcard.png","indoorcard.png","e",178,"face",1,"high",60,500,0,20.66575342,1
"MotER_500",1,"1","2","1327","1","1","2","obj12T","0","jupitercard.png","mooncard.png","mancard2.png","womancard.png","outdoorcard.png","indoorcard.png","e",2,"obj",0,"new",1,500,0,20.66575342,1
"MotER_500",1,"4","1","1315","1","1","2","obj12F","0","jupitercard.png","mooncard.png","mancard2.png","womancard.png","outdoorcard.png","indoorcard.png","e",5,"obj",1,"new",2,500,0,20.66575342,1
"MotER_500",1,"5","1","1768","1","1","2","obj12T","1","jupitercard.png","mooncard.png","mancard2.png","womancard.png","outdoorcard.png","indoorcard.png","e",6,"obj",1,"new",3,500,0,20.66575342,1
"MotER_500",1,"7","1","1963","1","1","2","obj12T","1","jupitercard.png","mooncard.png","mancard2.png","womancard.png","outdoorcard.png","indoorcard.png","e",8,"obj",1,"new",4,500,0,20.66575342,1
"MotER_500",1,"15","1","1525","1","1","2","obj12T","1","jupitercard.png","mooncard.png","mancard2.png","womancard.png","outdoorcard.png","indoorcard.png","e",16,"obj",1,"new",5,500,0,20.66575342,1
"MotER_500",1,"19","None","None","1","1","2","obj12F","None","jupitercard.png","mooncard.png","mancard2.png","womancard.png","outdoorcard.png","indoorcard.png","e",20,"obj",0,"new",6,500,0,20.66575342,1
"MotER_500",1,"24","1","873","1","1","2","obj12T","1","jupitercard.png","mooncard.png","mancard2.png","womancard.png","outdoorcard.png","indoorcard.png","e",25,"obj",1,"new",7,500,0,20.66575342,1
"MotER_500",1,"25","1","1076","1","1","2","obj12T","1","jupitercard.png","mooncard.png","mancard2.png","womancard.png","outdoorcard.png","indoorcard.png","e",26,"obj",1,"new",8,500,0,20.66575342,1
"MotER_500",1,"27","1","903","1","1","2","obj12T","1","jupitercard.png","mooncard.png","mancard2.png","womancard.png","outdoorcard.png","indoorcard.png","e",28,"obj",1,"new",9,500,0,20.66575342,1
"MotER_500",1,"28","1","622","1","1","2","obj12T","1","jupitercard.png","mooncard.png","mancard2.png","womancard.png","outdoorcard.png","indoorcard.png","e",29,"obj",1,"new",10,500,0,20.66575342,1
"MotER_500",2,"0","1","780","1","1","2","obj12T","1","jupitercard.png","mooncard.png","mancard2.png","womancard.png","outdoorcard.png","indoorcard.png","e",31,"obj",1,"new",11,500,0,20.66575342,1
"MotER_500",2,"2","1","1381","1","1","2","obj12T","1","jupitercard.png","mooncard.png","mancard2.png","womancard.png","outdoorcard.png","indoorcard.png","e",33,"obj",1,"new",12,500,0,20.66575342,1
"MotER_500",2,"4","1","922","1","1","2","obj12T","1","jupitercard.png","mooncard.png","mancard2.png","womancard.png","outdoorcard.png","indoorcard.png","e",35,"obj",1,"new",13,500,0,20.66575342,1
"MotER_500",2,"5","1","572","1","1","2","obj12T","1","jupitercard.png","mooncard.png","mancard2.png","womancard.png","outdoorcard.png","indoorcard.png","e",36,"obj",1,"new",14,500,0,20.66575342,1
"MotER_500",2,"14","1","455","1","1","2","obj12F","0","jupitercard.png","mooncard.png","mancard2.png","womancard.png","outdoorcard.png","indoorcard.png","e",45,"obj",1,"new",15,500,0,20.66575342,1
"MotER_500",2,"19","1","679","1","1","2","obj12T","1","jupitercard.png","mooncard.png","mancard2.png","womancard.png","outdoorcard.png","indoorcard.png","e",50,"obj",1,"new",16,500,0,20.66575342,1
"MotER_500",2,"26","1","780","1","1","2","obj12T","1","jupitercard.png","mooncard.png","mancard2.png","womancard.png","outdoorcard.png","indoorcard.png","e",57,"obj",1,"new",17,500,0,20.66575342,1
"MotER_500",2,"27","1","689","1","1","2","obj12T","1","jupitercard.png","mooncard.png","mancard2.png","womancard.png","outdoorcard.png","indoorcard.png","e",58,"obj",1,"new",18,500,0,20.66575342,1
"MotER_500",2,"28","1","602","1","1","2","obj12F","0","jupitercard.png","mooncard.png","mancard2.png","womancard.png","outdoorcard.png","indoorcard.png","e",59,"obj",1,"new",19,500,0,20.66575342,1
"MotER_500",2,"29","1","518","1","1","2","obj12T","1","jupitercard.png","mooncard.png","mancard2.png","womancard.png","outdoorcard.png","indoorcard.png","e",60,"obj",1,"new",20,500,0,20.66575342,1
"MotER_500",3,"1","1","675","1","1","2","obj12T","1","jupitercard.png","mooncard.png","mancard2.png","womancard.png","outdoorcard.png","indoorcard.png","e",62,"obj",1,"new",21,500,0,20.66575342,1
"MotER_500",3,"9","1","615","1","1","2","obj12F","0","jupitercard.png","mooncard.png","mancard2.png","womancard.png","outdoorcard.png","indoorcard.png","e",70,"obj",1,"new",22,500,0,20.66575342,1
"MotER_500",3,"10","1","565","1","1","2","obj12T","1","jupitercard.png","mooncard.png","mancard2.png","womancard.png","outdoorcard.png","indoorcard.png","e",71,"obj",1,"new",23,500,0,20.66575342,1
"MotER_500",3,"11","1","483","1","1","2","obj12T","1","jupitercard.png","mooncard.png","mancard2.png","womancard.png","outdoorcard.png","indoorcard.png","e",72,"obj",1,"new",24,500,0,20.66575342,1
"MotER_500",3,"15","1","643","1","1","2","obj12T","1","jupitercard.png","mooncard.png","mancard2.png","womancard.png","outdoorcard.png","indoorcard.png","e",76,"obj",1,"new",25,500,0,20.66575342,1
"MotER_500",3,"17","1","611","1","1","2","obj12T","1","jupitercard.png","mooncard.png","mancard2.png","womancard.png","outdoorcard.png","indoorcard.png","e",78,"obj",1,"new",26,500,0,20.66575342,1
"MotER_500",3,"20","1","592","1","1","2","obj12F","0","jupitercard.png","mooncard.png","mancard2.png","womancard.png","outdoorcard.png","indoorcard.png","e",81,"obj",1,"new",27,500,0,20.66575342,1
"MotER_500",3,"21","1","482","1","1","2","obj12T","1","jupitercard.png","mooncard.png","mancard2.png","womancard.png","outdoorcard.png","indoorcard.png","e",82,"obj",1,"new",28,500,0,20.66575342,1
"MotER_500",3,"24","1","623","1","1","2","obj12T","1","jupitercard.png","mooncard.png","mancard2.png","womancard.png","outdoorcard.png","indoorcard.png","e",85,"obj",1,"new",29,500,0,20.66575342,1
"MotER_500",3,"27","1","677","1","1","2","obj12T","1","jupitercard.png","mooncard.png","mancard2.png","womancard.png","outdoorcard.png","indoorcard.png","e",88,"obj",1,"new",30,500,0,20.66575342,1
"MotER_500",4,"1","1","637","1","1","2","obj12T","1","jupitercard.png","mooncard.png","mancard2.png","womancard.png","outdoorcard.png","indoorcard.png","e",92,"obj",1,"new",31,500,0,20.66575342,1
"MotER_500",4,"3","1","568","1","1","2","obj12T","1","jupitercard.png","mooncard.png","mancard2.png","womancard.png","outdoorcard.png","indoorcard.png","e",94,"obj",1,"new",32,500,0,20.66575342,1
"MotER_500",4,"5","1","541","1","1","2","obj12T","1","jupitercard.png","mooncard.png","mancard2.png","womancard.png","outdoorcard.png","indoorcard.png","e",96,"obj",1,"new",33,500,0,20.66575342,1
"MotER_500",4,"6","1","629","1","1","2","obj12F","0","jupitercard.png","mooncard.png","mancard2.png","womancard.png","outdoorcard.png","indoorcard.png","e",97,"obj",1,"new",34,500,0,20.66575342,1
"MotER_500",4,"16","1","611","1","1","2","obj12T","1","jupitercard.png","mooncard.png","mancard2.png","womancard.png","outdoorcard.png","indoorcard.png","e",107,"obj",1,"new",35,500,0,20.66575342,1
"MotER_500",4,"18","1","658","1","1","2","obj12T","1","jupitercard.png","mooncard.png","mancard2.png","womancard.png","outdoorcard.png","indoorcard.png","e",109,"obj",1,"new",36,500,0,20.66575342,1
"MotER_500",4,"19","1","700","1","1","2","obj12T","1","jupitercard.png","mooncard.png","mancard2.png","womancard.png","outdoorcard.png","indoorcard.png","e",110,"obj",1,"new",37,500,0,20.66575342,1
"MotER_500",4,"25","1","429","1","1","2","obj12T","1","jupitercard.png","mooncard.png","mancard2.png","womancard.png","outdoorcard.png","indoorcard.png","e",116,"obj",1,"new",38,500,0,20.66575342,1
"MotER_500",4,"27","1","714","1","1","2","obj12T","1","jupitercard.png","mooncard.png","mancard2.png","womancard.png","outdoorcard.png","indoorcard.png","e",118,"obj",1,"new",39,500,0,20.66575342,1
"MotER_500",4,"28","1","603","1","1","2","obj12F","0","jupitercard.png","mooncard.png","mancard2.png","womancard.png","outdoorcard.png","indoorcard.png","e",119,"obj",1,"new",40,500,0,20.66575342,1
"MotER_500",5,"2","1","657","1","1","2","obj12T","1","jupitercard.png","mooncard.png","mancard2.png","womancard.png","outdoorcard.png","indoorcard.png","e",123,"obj",1,"new",41,500,0,20.66575342,1
"MotER_500",5,"4","1","585","1","1","2","obj12T","1","jupitercard.png","mooncard.png","mancard2.png","womancard.png","outdoorcard.png","indoorcard.png","e",125,"obj",1,"new",42,500,0,20.66575342,1
"MotER_500",5,"7","1","513","1","1","2","obj12T","1","jupitercard.png","mooncard.png","mancard2.png","womancard.png","outdoorcard.png","indoorcard.png","e",128,"obj",1,"new",43,500,0,20.66575342,1
"MotER_500",5,"8","1","798","1","1","2","obj12F","0","jupitercard.png","mooncard.png","mancard2.png","womancard.png","outdoorcard.png","indoorcard.png","e",129,"obj",1,"new",44,500,0,20.66575342,1
"MotER_500",5,"9","1","640","1","1","2","obj12T","1","jupitercard.png","mooncard.png","mancard2.png","womancard.png","outdoorcard.png","indoorcard.png","e",130,"obj",1,"new",45,500,0,20.66575342,1
"MotER_500",5,"11","1","628","1","1","2","obj12T","1","jupitercard.png","mooncard.png","mancard2.png","womancard.png","outdoorcard.png","indoorcard.png","e",132,"obj",1,"new",46,500,0,20.66575342,1
"MotER_500",5,"12","1","529","1","1","2","obj12T","1","jupitercard.png","mooncard.png","mancard2.png","womancard.png","outdoorcard.png","indoorcard.png","e",133,"obj",1,"new",47,500,0,20.66575342,1
"MotER_500",5,"15","1","547","1","1","2","obj12T","1","jupitercard.png","mooncard.png","mancard2.png","womancard.png","outdoorcard.png","indoorcard.png","e",136,"obj",1,"new",48,500,0,20.66575342,1
"MotER_500",5,"18","1","623","1","1","2","obj12T","1","jupitercard.png","mooncard.png","mancard2.png","womancard.png","outdoorcard.png","indoorcard.png","e",139,"obj",1,"new",49,500,0,20.66575342,1
"MotER_500",5,"22","1","550","1","1","2","obj12F","0","jupitercard.png","mooncard.png","mancard2.png","womancard.png","outdoorcard.png","indoorcard.png","e",143,"obj",1,"new",50,500,0,20.66575342,1
"MotER_500",6,"6","1","596","1","1","2","obj12T","1","jupitercard.png","mooncard.png","mancard2.png","womancard.png","outdoorcard.png","indoorcard.png","e",157,"obj",1,"new",51,500,0,20.66575342,1
"MotER_500",6,"8","1","555","1","1","2","obj12T","1","jupitercard.png","mooncard.png","mancard2.png","womancard.png","outdoorcard.png","indoorcard.png","e",159,"obj",1,"new",52,500,0,20.66575342,1
"MotER_500",6,"11","1","608","1","1","2","obj12T","1","jupitercard.png","mooncard.png","mancard2.png","womancard.png","outdoorcard.png","indoorcard.png","e",162,"obj",1,"new",53,500,0,20.66575342,1
"MotER_500",6,"12","1","565","1","1","2","obj12F","0","jupitercard.png","mooncard.png","mancard2.png","womancard.png","outdoorcard.png","indoorcard.png","e",163,"obj",1,"new",54,500,0,20.66575342,1
"MotER_500",6,"14","1","798","1","1","2","obj12T","1","jupitercard.png","mooncard.png","mancard2.png","womancard.png","outdoorcard.png","indoorcard.png","e",165,"obj",1,"new",55,500,0,20.66575342,1
"MotER_500",6,"21","1","569","1","1","2","obj12T","1","jupitercard.png","mooncard.png","mancard2.png","womancard.png","outdoorcard.png","indoorcard.png","e",172,"obj",1,"new",56,500,0,20.66575342,1
"MotER_500",6,"22","1","533","1","1","2","obj12T","1","jupitercard.png","mooncard.png","mancard2.png","womancard.png","outdoorcard.png","indoorcard.png","e",173,"obj",1,"new",57,500,0,20.66575342,1
"MotER_500",6,"25","1","628","1","1","2","obj12F","0","jupitercard.png","mooncard.png","mancard2.png","womancard.png","outdoorcard.png","indoorcard.png","e",176,"obj",1,"new",58,500,0,20.66575342,1
"MotER_500",6,"28","1","601","1","1","2","obj12T","1","jupitercard.png","mooncard.png","mancard2.png","womancard.png","outdoorcard.png","indoorcard.png","e",179,"obj",1,"new",59,500,0,20.66575342,1
"MotER_500",6,"29","1","571","1","1","2","obj12T","1","jupitercard.png","mooncard.png","mancard2.png","womancard.png","outdoorcard.png","indoorcard.png","e",180,"obj",1,"new",60,500,0,20.66575342,1
"MotER_500",1,"6","1","1979","1","1","2","scene12T","0","jupitercard.png","mooncard.png","mancard2.png","womancard.png","outdoorcard.png","indoorcard.png","e",7,"scene",0,"low",1,500,0,20.66575342,1
"MotER_500",1,"8","1","1646","1","1","2","scene12T","0","jupitercard.png","mooncard.png","mancard2.png","womancard.png","outdoorcard.png","indoorcard.png","e",9,"scene",0,"low",2,500,0,20.66575342,1
"MotER_500",1,"10","2","1861","1","1","2","scene12F","0","jupitercard.png","mooncard.png","mancard2.png","womancard.png","outdoorcard.png","indoorcard.png","e",11,"scene",1,"low",3,500,0,20.66575342,1
"MotER_500",1,"11","2","1111","1","1","2","scene12F","0","jupitercard.png","mooncard.png","mancard2.png","womancard.png","outdoorcard.png","indoorcard.png","e",12,"scene",1,"low",4,500,0,20.66575342,1
"MotER_500",1,"12","2","1812","1","1","2","scene12T","1","jupitercard.png","mooncard.png","mancard2.png","womancard.png","outdoorcard.png","indoorcard.png","e",13,"scene",1,"low",5,500,0,20.66575342,1
"MotER_500",1,"13","2","1003","1","1","2","scene12T","1","jupitercard.png","mooncard.png","mancard2.png","womancard.png","outdoorcard.png","indoorcard.png","e",14,"scene",1,"low",6,500,0,20.66575342,1
"MotER_500",1,"17","2","1686","1","1","2","scene12T","1","jupitercard.png","mooncard.png","mancard2.png","womancard.png","outdoorcard.png","indoorcard.png","e",18,"scene",1,"low",7,500,0,20.66575342,1
"MotER_500",1,"21","2","1529","1","1","2","scene12T","1","jupitercard.png","mooncard.png","mancard2.png","womancard.png","outdoorcard.png","indoorcard.png","e",22,"scene",1,"low",8,500,0,20.66575342,1
"MotER_500",1,"22","2","1323","1","1","2","scene12F","0","jupitercard.png","mooncard.png","mancard2.png","womancard.png","outdoorcard.png","indoorcard.png","e",23,"scene",1,"low",9,500,0,20.66575342,1
"MotER_500",1,"29","2","1207","1","1","2","scene12T","1","jupitercard.png","mooncard.png","mancard2.png","womancard.png","outdoorcard.png","indoorcard.png","e",30,"scene",1,"low",10,500,0,20.66575342,1
"MotER_500",2,"1","2","930","1","1","2","scene12T","1","jupitercard.png","mooncard.png","mancard2.png","womancard.png","outdoorcard.png","indoorcard.png","e",32,"scene",1,"low",11,500,0,20.66575342,1
"MotER_500",2,"3","2","771","1","1","2","scene12T","1","jupitercard.png","mooncard.png","mancard2.png","womancard.png","outdoorcard.png","indoorcard.png","e",34,"scene",1,"low",12,500,0,20.66575342,1
"MotER_500",2,"6","2","619","1","1","2","scene12T","1","jupitercard.png","mooncard.png","mancard2.png","womancard.png","outdoorcard.png","indoorcard.png","e",37,"scene",1,"low",13,500,0,20.66575342,1
"MotER_500",2,"7","2","675","1","1","2","scene12F","0","jupitercard.png","mooncard.png","mancard2.png","womancard.png","outdoorcard.png","indoorcard.png","e",38,"scene",1,"low",14,500,0,20.66575342,1
"MotER_500",2,"9","2","944","1","1","2","scene12T","1","jupitercard.png","mooncard.png","mancard2.png","womancard.png","outdoorcard.png","indoorcard.png","e",40,"scene",1,"low",15,500,0,20.66575342,1
"MotER_500",2,"12","1","1203","1","1","2","scene12T","0","jupitercard.png","mooncard.png","mancard2.png","womancard.png","outdoorcard.png","indoorcard.png","e",43,"scene",0,"low",16,500,0,20.66575342,1
"MotER_500",2,"18","2","685","1","1","2","scene12F","0","jupitercard.png","mooncard.png","mancard2.png","womancard.png","outdoorcard.png","indoorcard.png","e",49,"scene",1,"low",17,500,0,20.66575342,1
"MotER_500",2,"20","2","758","1","1","2","scene12T","1","jupitercard.png","mooncard.png","mancard2.png","womancard.png","outdoorcard.png","indoorcard.png","e",51,"scene",1,"low",18,500,0,20.66575342,1
"MotER_500",2,"23","2","740","1","1","2","scene12F","0","jupitercard.png","mooncard.png","mancard2.png","womancard.png","outdoorcard.png","indoorcard.png","e",54,"scene",1,"low",19,500,0,20.66575342,1
"MotER_500",2,"24","2","741","1","1","2","scene12T","1","jupitercard.png","mooncard.png","mancard2.png","womancard.png","outdoorcard.png","indoorcard.png","e",55,"scene",1,"low",20,500,0,20.66575342,1
"MotER_500",3,"0","2","634","1","1","2","scene12T","1","jupitercard.png","mooncard.png","mancard2.png","womancard.png","outdoorcard.png","indoorcard.png","e",61,"scene",1,"low",21,500,0,20.66575342,1
"MotER_500",3,"2","2","670","1","1","2","scene12T","1","jupitercard.png","mooncard.png","mancard2.png","womancard.png","outdoorcard.png","indoorcard.png","e",63,"scene",1,"low",22,500,0,20.66575342,1
"MotER_500",3,"6","2","854","1","1","2","scene12T","1","jupitercard.png","mooncard.png","mancard2.png","womancard.png","outdoorcard.png","indoorcard.png","e",67,"scene",1,"low",23,500,0,20.66575342,1
"MotER_500",3,"7","2","695","1","1","2","scene12T","1","jupitercard.png","mooncard.png","mancard2.png","womancard.png","outdoorcard.png","indoorcard.png","e",68,"scene",1,"low",24,500,0,20.66575342,1
"MotER_500",3,"8","2","588","1","1","2","scene12F","0","jupitercard.png","mooncard.png","mancard2.png","womancard.png","outdoorcard.png","indoorcard.png","e",69,"scene",1,"low",25,500,0,20.66575342,1
"MotER_500",3,"12","2","694","1","1","2","scene12T","1","jupitercard.png","mooncard.png","mancard2.png","womancard.png","outdoorcard.png","indoorcard.png","e",73,"scene",1,"low",26,500,0,20.66575342,1
"MotER_500",3,"13","2","633","1","1","2","scene12T","1","jupitercard.png","mooncard.png","mancard2.png","womancard.png","outdoorcard.png","indoorcard.png","e",74,"scene",1,"low",27,500,0,20.66575342,1
"MotER_500",3,"16","2","721","1","1","2","scene12F","0","jupitercard.png","mooncard.png","mancard2.png","womancard.png","outdoorcard.png","indoorcard.png","e",77,"scene",1,"low",28,500,0,20.66575342,1
"MotER_500",3,"19","2","667","1","1","2","scene12T","1","jupitercard.png","mooncard.png","mancard2.png","womancard.png","outdoorcard.png","indoorcard.png","e",80,"scene",1,"low",29,500,0,20.66575342,1
"MotER_500",3,"25","2","893","1","1","2","scene12F","0","jupitercard.png","mooncard.png","mancard2.png","womancard.png","outdoorcard.png","indoorcard.png","e",86,"scene",1,"low",30,500,0,20.66575342,1
"MotER_500",4,"2","2","738","1","1","2","scene12F","0","jupitercard.png","mooncard.png","mancard2.png","womancard.png","outdoorcard.png","indoorcard.png","e",93,"scene",1,"low",31,500,0,20.66575342,1
"MotER_500",4,"7","2","839","1","1","2","scene12T","1","jupitercard.png","mooncard.png","mancard2.png","womancard.png","outdoorcard.png","indoorcard.png","e",98,"scene",1,"low",32,500,0,20.66575342,1
"MotER_500",4,"10","2","704","1","1","2","scene12F","0","jupitercard.png","mooncard.png","mancard2.png","womancard.png","outdoorcard.png","indoorcard.png","e",101,"scene",1,"low",33,500,0,20.66575342,1
"MotER_500",4,"11","2","643","1","1","2","scene12T","1","jupitercard.png","mooncard.png","mancard2.png","womancard.png","outdoorcard.png","indoorcard.png","e",102,"scene",1,"low",34,500,0,20.66575342,1
"MotER_500",4,"13","1","1336","1","1","2","scene12T","0","jupitercard.png","mooncard.png","mancard2.png","womancard.png","outdoorcard.png","indoorcard.png","e",104,"scene",0,"low",35,500,0,20.66575342,1
"MotER_500",4,"14","2","603","1","1","2","scene12T","1","jupitercard.png","mooncard.png","mancard2.png","womancard.png","outdoorcard.png","indoorcard.png","e",105,"scene",1,"low",36,500,0,20.66575342,1
"MotER_500",4,"15","2","582","1","1","2","scene12T","1","jupitercard.png","mooncard.png","mancard2.png","womancard.png","outdoorcard.png","indoorcard.png","e",106,"scene",1,"low",37,500,0,20.66575342,1
"MotER_500",4,"23","2","1366","1","1","2","scene12T","1","jupitercard.png","mooncard.png","mancard2.png","womancard.png","outdoorcard.png","indoorcard.png","e",114,"scene",1,"low",38,500,0,20.66575342,1
"MotER_500",4,"24","2","688","1","1","2","scene12T","1","jupitercard.png","mooncard.png","mancard2.png","womancard.png","outdoorcard.png","indoorcard.png","e",115,"scene",1,"low",39,500,0,20.66575342,1
"MotER_500",4,"29","2","673","1","1","2","scene12F","0","jupitercard.png","mooncard.png","mancard2.png","womancard.png","outdoorcard.png","indoorcard.png","e",120,"scene",1,"low",40,500,0,20.66575342,1
"MotER_500",5,"0","2","1138","1","1","2","scene12T","1","jupitercard.png","mooncard.png","mancard2.png","womancard.png","outdoorcard.png","indoorcard.png","e",121,"scene",1,"low",41,500,0,20.66575342,1
"MotER_500",5,"3","2","641","1","1","2","scene12T","1","jupitercard.png","mooncard.png","mancard2.png","womancard.png","outdoorcard.png","indoorcard.png","e",124,"scene",1,"low",42,500,0,20.66575342,1
"MotER_500",5,"6","2","709","1","1","2","scene12T","1","jupitercard.png","mooncard.png","mancard2.png","womancard.png","outdoorcard.png","indoorcard.png","e",127,"scene",1,"low",43,500,0,20.66575342,1
"MotER_500",5,"13","2","763","1","1","2","scene12F","0","jupitercard.png","mooncard.png","mancard2.png","womancard.png","outdoorcard.png","indoorcard.png","e",134,"scene",1,"low",44,500,0,20.66575342,1
"MotER_500",5,"14","2","1173","1","1","2","scene12F","0","jupitercard.png","mooncard.png","mancard2.png","womancard.png","outdoorcard.png","indoorcard.png","e",135,"scene",1,"low",45,500,0,20.66575342,1
"MotER_500",5,"17","2","767","1","1","2","scene12F","0","jupitercard.png","mooncard.png","mancard2.png","womancard.png","outdoorcard.png","indoorcard.png","e",138,"scene",1,"low",46,500,0,20.66575342,1
"MotER_500",5,"19","2","986","1","1","2","scene12T","1","jupitercard.png","mooncard.png","mancard2.png","womancard.png","outdoorcard.png","indoorcard.png","e",140,"scene",1,"low",47,500,0,20.66575342,1
"MotER_500",5,"25","2","692","1","1","2","scene12T","1","jupitercard.png","mooncard.png","mancard2.png","womancard.png","outdoorcard.png","indoorcard.png","e",146,"scene",1,"low",48,500,0,20.66575342,1
"MotER_500",5,"26","2","704","1","1","2","scene12T","1","jupitercard.png","mooncard.png","mancard2.png","womancard.png","outdoorcard.png","indoorcard.png","e",147,"scene",1,"low",49,500,0,20.66575342,1
"MotER_500",5,"29","2","670","1","1","2","scene12T","1","jupitercard.png","mooncard.png","mancard2.png","womancard.png","outdoorcard.png","indoorcard.png","e",150,"scene",1,"low",50,500,0,20.66575342,1
"MotER_500",6,"0","2","946","1","1","2","scene12T","1","jupitercard.png","mooncard.png","mancard2.png","womancard.png","outdoorcard.png","indoorcard.png","e",151,"scene",1,"low",51,500,0,20.66575342,1
"MotER_500",6,"5","2","1006","1","1","2","scene12F","0","jupitercard.png","mooncard.png","mancard2.png","womancard.png","outdoorcard.png","indoorcard.png","e",156,"scene",1,"low",52,500,0,20.66575342,1
"MotER_500",6,"7","2","870","1","1","2","scene12T","1","jupitercard.png","mooncard.png","mancard2.png","womancard.png","outdoorcard.png","indoorcard.png","e",158,"scene",1,"low",53,500,0,20.66575342,1
"MotER_500",6,"9","2","642","1","1","2","scene12T","1","jupitercard.png","mooncard.png","mancard2.png","womancard.png","outdoorcard.png","indoorcard.png","e",160,"scene",1,"low",54,500,0,20.66575342,1
"MotER_500",6,"10","2","745","1","1","2","scene12T","1","jupitercard.png","mooncard.png","mancard2.png","womancard.png","outdoorcard.png","indoorcard.png","e",161,"scene",1,"low",55,500,0,20.66575342,1
"MotER_500",6,"13","2","756","1","1","2","scene12T","1","jupitercard.png","mooncard.png","mancard2.png","womancard.png","outdoorcard.png","indoorcard.png","e",164,"scene",1,"low",56,500,0,20.66575342,1
"MotER_500",6,"15","2","740","1","1","2","scene12T","1","jupitercard.png","mooncard.png","mancard2.png","womancard.png","outdoorcard.png","indoorcard.png","e",166,"scene",1,"low",57,500,0,20.66575342,1
"MotER_500",6,"18","2","634","1","1","2","scene12F","0","jupitercard.png","mooncard.png","mancard2.png","womancard.png","outdoorcard.png","indoorcard.png","e",169,"scene",1,"low",58,500,0,20.66575342,1
"MotER_500",6,"23","2","797","1","1","2","scene12T","1","jupitercard.png","mooncard.png","mancard2.png","womancard.png","outdoorcard.png","indoorcard.png","e",174,"scene",1,"low",59,500,0,20.66575342,1
"MotER_500",6,"24","2","621","1","1","2","scene12F","0","jupitercard.png","mooncard.png","mancard2.png","womancard.png","outdoorcard.png","indoorcard.png","e",175,"scene",1,"low",60,500,0,20.66575342,1
"MotER_501",1,"0","1","1144","1","2","1","face12T","0","mooncard.png","jupitercard.png","womancard2.png","mancard.png","indoorcard2.png","outdoorcard2.png","o",1,"face",0,"low",1,501,1,21.43561644,1
"MotER_501",1,"2","2","876","1","2","1","face12T","1","mooncard.png","jupitercard.png","womancard2.png","mancard.png","indoorcard2.png","outdoorcard2.png","o",3,"face",1,"low",2,501,1,21.43561644,1
"MotER_501",1,"5","1","1162","1","2","1","face12F","1","mooncard.png","jupitercard.png","womancard2.png","mancard.png","indoorcard2.png","outdoorcard2.png","o",6,"face",0,"low",3,501,1,21.43561644,1
"MotER_501",1,"6","1","677","1","2","1","face12T","0","mooncard.png","jupitercard.png","womancard2.png","mancard.png","indoorcard2.png","outdoorcard2.png","o",7,"face",0,"low",4,501,1,21.43561644,1
"MotER_501",1,"12","1","729","1","2","1","face12T","0","mooncard.png","jupitercard.png","womancard2.png","mancard.png","indoorcard2.png","outdoorcard2.png","o",13,"face",0,"low",5,501,1,21.43561644,1
"MotER_501",1,"15","2","769","1","2","1","face12T","1","mooncard.png","jupitercard.png","womancard2.png","mancard.png","indoorcard2.png","outdoorcard2.png","o",16,"face",1,"low",6,501,1,21.43561644,1
"MotER_501",1,"16","2","486","1","2","1","face12F","0","mooncard.png","jupitercard.png","womancard2.png","mancard.png","indoorcard2.png","outdoorcard2.png","o",17,"face",1,"low",7,501,1,21.43561644,1
"MotER_501",1,"21","1","559","1","2","1","face12T","0","mooncard.png","jupitercard.png","womancard2.png","mancard.png","indoorcard2.png","outdoorcard2.png","o",22,"face",0,"low",8,501,1,21.43561644,1
"MotER_501",1,"27","1","872","1","2","1","face12T","0","mooncard.png","jupitercard.png","womancard2.png","mancard.png","indoorcard2.png","outdoorcard2.png","o",28,"face",0,"low",9,501,1,21.43561644,1
"MotER_501",1,"28","2","677","1","2","1","face12F","0","mooncard.png","jupitercard.png","womancard2.png","mancard.png","indoorcard2.png","outdoorcard2.png","o",29,"face",1,"low",10,501,1,21.43561644,1
"MotER_501",2,"1","2","587","1","2","1","face12T","1","mooncard.png","jupitercard.png","womancard2.png","mancard.png","indoorcard2.png","outdoorcard2.png","o",32,"face",1,"low",11,501,1,21.43561644,1
"MotER_501",2,"8","1","1028","1","2","1","face12T","0","mooncard.png","jupitercard.png","womancard2.png","mancard.png","indoorcard2.png","outdoorcard2.png","o",39,"face",0,"low",12,501,1,21.43561644,1
"MotER_501",2,"10","1","832","1","2","1","face12T","0","mooncard.png","jupitercard.png","womancard2.png","mancard.png","indoorcard2.png","outdoorcard2.png","o",41,"face",0,"low",13,501,1,21.43561644,1
"MotER_501",2,"15","2","362","1","2","1","face12F","0","mooncard.png","jupitercard.png","womancard2.png","mancard.png","indoorcard2.png","outdoorcard2.png","o",46,"face",1,"low",14,501,1,21.43561644,1
"MotER_501",2,"19","1","741","1","2","1","face12T","0","mooncard.png","jupitercard.png","womancard2.png","mancard.png","indoorcard2.png","outdoorcard2.png","o",50,"face",0,"low",15,501,1,21.43561644,1
"MotER_501",2,"20","2","1146","1","2","1","face12F","0","mooncard.png","jupitercard.png","womancard2.png","mancard.png","indoorcard2.png","outdoorcard2.png","o",51,"face",1,"low",16,501,1,21.43561644,1
"MotER_501",2,"21","1","1116","1","2","1","face12T","0","mooncard.png","jupitercard.png","womancard2.png","mancard.png","indoorcard2.png","outdoorcard2.png","o",52,"face",0,"low",17,501,1,21.43561644,1
"MotER_501",2,"23","1","1107","1","2","1","face12T","0","mooncard.png","jupitercard.png","womancard2.png","mancard.png","indoorcard2.png","outdoorcard2.png","o",54,"face",0,"low",18,501,1,21.43561644,1
"MotER_501",2,"24","2","1133","1","2","1","face12F","0","mooncard.png","jupitercard.png","womancard2.png","mancard.png","indoorcard2.png","outdoorcard2.png","o",55,"face",1,"low",19,501,1,21.43561644,1
"MotER_501",2,"29","1","362","1","2","1","face12T","0","mooncard.png","jupitercard.png","womancard2.png","mancard.png","indoorcard2.png","outdoorcard2.png","o",60,"face",0,"low",20,501,1,21.43561644,1
"MotER_501",3,"0","2","583","1","2","1","face12T","1","mooncard.png","jupitercard.png","womancard2.png","mancard.png","indoorcard2.png","outdoorcard2.png","o",61,"face",1,"low",21,501,1,21.43561644,1
"MotER_501",3,"2","2","824","1","2","1","face12F","0","mooncard.png","jupitercard.png","womancard2.png","mancard.png","indoorcard2.png","outdoorcard2.png","o",63,"face",1,"low",22,501,1,21.43561644,1
"MotER_501",3,"7","2","1151","1","2","1","face12F","0","mooncard.png","jupitercard.png","womancard2.png","mancard.png","indoorcard2.png","outdoorcard2.png","o",68,"face",1,"low",23,501,1,21.43561644,1
"MotER_501",3,"8","1","1593","1","2","1","face12T","0","mooncard.png","jupitercard.png","womancard2.png","mancard.png","indoorcard2.png","outdoorcard2.png","o",69,"face",0,"low",24,501,1,21.43561644,1
"MotER_501",3,"11","2","403","1","2","1","face12T","1","mooncard.png","jupitercard.png","womancard2.png","mancard.png","indoorcard2.png","outdoorcard2.png","o",72,"face",1,"low",25,501,1,21.43561644,1
"MotER_501",3,"13","2","527","1","2","1","face12T","1","mooncard.png","jupitercard.png","womancard2.png","mancard.png","indoorcard2.png","outdoorcard2.png","o",74,"face",1,"low",26,501,1,21.43561644,1
"MotER_501",3,"19","2","611","1","2","1","face12F","0","mooncard.png","jupitercard.png","womancard2.png","mancard.png","indoorcard2.png","outdoorcard2.png","o",80,"face",1,"low",27,501,1,21.43561644,1
"MotER_501",3,"23","2","1124","1","2","1","face12T","1","mooncard.png","jupitercard.png","womancard2.png","mancard.png","indoorcard2.png","outdoorcard2.png","o",84,"face",1,"low",28,501,1,21.43561644,1
"MotER_501",3,"25","2","1618","1","2","1","face12T","1","mooncard.png","jupitercard.png","womancard2.png","mancard.png","indoorcard2.png","outdoorcard2.png","o",86,"face",1,"low",29,501,1,21.43561644,1
"MotER_501",3,"28","2","794","1","2","1","face12T","1","mooncard.png","jupitercard.png","womancard2.png","mancard.png","indoorcard2.png","outdoorcard2.png","o",89,"face",1,"low",30,501,1,21.43561644,1
"MotER_501",4,"0","2","612","1","2","1","face12T","1","mooncard.png","jupitercard.png","womancard2.png","mancard.png","indoorcard2.png","outdoorcard2.png","o",91,"face",1,"low",31,501,1,21.43561644,1
"MotER_501",4,"3","2","437","1","2","1","face12T","1","mooncard.png","jupitercard.png","womancard2.png","mancard.png","indoorcard2.png","outdoorcard2.png","o",94,"face",1,"low",32,501,1,21.43561644,1
"MotER_501",4,"8","2","689","1","2","1","face12T","1","mooncard.png","jupitercard.png","womancard2.png","mancard.png","indoorcard2.png","outdoorcard2.png","o",99,"face",1,"low",33,501,1,21.43561644,1
"MotER_501",4,"12","2","759","1","2","1","face12F","0","mooncard.png","jupitercard.png","womancard2.png","mancard.png","indoorcard2.png","outdoorcard2.png","o",103,"face",1,"low",34,501,1,21.43561644,1
"MotER_501",4,"13","2","787","1","2","1","face12T","1","mooncard.png","jupitercard.png","womancard2.png","mancard.png","indoorcard2.png","outdoorcard2.png","o",104,"face",1,"low",35,501,1,21.43561644,1
"MotER_501",4,"16","2","558","1","2","1","face12F","0","mooncard.png","jupitercard.png","womancard2.png","mancard.png","indoorcard2.png","outdoorcard2.png","o",107,"face",1,"low",36,501,1,21.43561644,1
"MotER_501",4,"21","1","663","1","2","1","face12T","0","mooncard.png","jupitercard.png","womancard2.png","mancard.png","indoorcard2.png","outdoorcard2.png","o",112,"face",0,"low",37,501,1,21.43561644,1
"MotER_501",4,"25","2","962","1","2","1","face12F","0","mooncard.png","jupitercard.png","womancard2.png","mancard.png","indoorcard2.png","outdoorcard2.png","o",116,"face",1,"low",38,501,1,21.43561644,1
"MotER_501",4,"26","2","566","1","2","1","face12T","1","mooncard.png","jupitercard.png","womancard2.png","mancard.png","indoorcard2.png","outdoorcard2.png","o",117,"face",1,"low",39,501,1,21.43561644,1
"MotER_501",4,"28","2","626","1","2","1","face12T","1","mooncard.png","jupitercard.png","womancard2.png","mancard.png","indoorcard2.png","outdoorcard2.png","o",119,"face",1,"low",40,501,1,21.43561644,1
"MotER_501",5,"2","2","591","1","2","1","face12F","0","mooncard.png","jupitercard.png","womancard2.png","mancard.png","indoorcard2.png","outdoorcard2.png","o",123,"face",1,"low",41,501,1,21.43561644,1
"MotER_501",5,"3","2","621","1","2","1","face12T","1","mooncard.png","jupitercard.png","womancard2.png","mancard.png","indoorcard2.png","outdoorcard2.png","o",124,"face",1,"low",42,501,1,21.43561644,1
"MotER_501",5,"8","2","679","1","2","1","face12T","1","mooncard.png","jupitercard.png","womancard2.png","mancard.png","indoorcard2.png","outdoorcard2.png","o",129,"face",1,"low",43,501,1,21.43561644,1
"MotER_501",5,"10","2","671","1","2","1","face12T","1","mooncard.png","jupitercard.png","womancard2.png","mancard.png","indoorcard2.png","outdoorcard2.png","o",131,"face",1,"low",44,501,1,21.43561644,1
"MotER_501",5,"15","2","846","1","2","1","face12T","1","mooncard.png","jupitercard.png","womancard2.png","mancard.png","indoorcard2.png","outdoorcard2.png","o",136,"face",1,"low",45,501,1,21.43561644,1
"MotER_501",5,"17","2","667","1","2","1","face12F","0","mooncard.png","jupitercard.png","womancard2.png","mancard.png","indoorcard2.png","outdoorcard2.png","o",138,"face",1,"low",46,501,1,21.43561644,1
"MotER_501",5,"19","2","552","1","2","1","face12F","0","mooncard.png","jupitercard.png","womancard2.png","mancard.png","indoorcard2.png","outdoorcard2.png","o",140,"face",1,"low",47,501,1,21.43561644,1
"MotER_501",5,"20","1","745","1","2","1","face12T","0","mooncard.png","jupitercard.png","womancard2.png","mancard.png","indoorcard2.png","outdoorcard2.png","o",141,"face",0,"low",48,501,1,21.43561644,1
"MotER_501",5,"23","2","980","1","2","1","face12T","1","mooncard.png","jupitercard.png","womancard2.png","mancard.png","indoorcard2.png","outdoorcard2.png","o",144,"face",1,"low",49,501,1,21.43561644,1
"MotER_501",5,"24","2","583","1","2","1","face12T","1","mooncard.png","jupitercard.png","womancard2.png","mancard.png","indoorcard2.png","outdoorcard2.png","o",145,"face",1,"low",50,501,1,21.43561644,1
"MotER_501",6,"0","2","687","1","2","1","face12T","1","mooncard.png","jupitercard.png","womancard2.png","mancard.png","indoorcard2.png","outdoorcard2.png","o",151,"face",1,"low",51,501,1,21.43561644,1
"MotER_501",6,"1","2","764","1","2","1","face12T","1","mooncard.png","jupitercard.png","womancard2.png","mancard.png","indoorcard2.png","outdoorcard2.png","o",152,"face",1,"low",52,501,1,21.43561644,1
"MotER_501",6,"2","2","733","1","2","1","face12T","1","mooncard.png","jupitercard.png","womancard2.png","mancard.png","indoorcard2.png","outdoorcard2.png","o",153,"face",1,"low",53,501,1,21.43561644,1
"MotER_501",6,"5","2","875","1","2","1","face12T","1","mooncard.png","jupitercard.png","womancard2.png","mancard.png","indoorcard2.png","outdoorcard2.png","o",156,"face",1,"low",54,501,1,21.43561644,1
"MotER_501",6,"7","2","718","1","2","1","face12F","0","mooncard.png","jupitercard.png","womancard2.png","mancard.png","indoorcard2.png","outdoorcard2.png","o",158,"face",1,"low",55,501,1,21.43561644,1
"MotER_501",6,"10","2","618","1","2","1","face12F","0","mooncard.png","jupitercard.png","womancard2.png","mancard.png","indoorcard2.png","outdoorcard2.png","o",161,"face",1,"low",56,501,1,21.43561644,1
"MotER_501",6,"14","2","1048","1","2","1","face12T","1","mooncard.png","jupitercard.png","womancard2.png","mancard.png","indoorcard2.png","outdoorcard2.png","o",165,"face",1,"low",57,501,1,21.43561644,1
"MotER_501",6,"16","2","574","1","2","1","face12T","1","mooncard.png","jupitercard.png","womancard2.png","mancard.png","indoorcard2.png","outdoorcard2.png","o",167,"face",1,"low",58,501,1,21.43561644,1
"MotER_501",6,"20","2","598","1","2","1","face12T","1","mooncard.png","jupitercard.png","womancard2.png","mancard.png","indoorcard2.png","outdoorcard2.png","o",171,"face",1,"low",59,501,1,21.43561644,1
"MotER_501",6,"25","2","1268","1","2","1","face12F","0","mooncard.png","jupitercard.png","womancard2.png","mancard.png","indoorcard2.png","outdoorcard2.png","o",176,"face",1,"low",60,501,1,21.43561644,1
"MotER_501",1,"1","2","809","1","2","1","obj12T","0","mooncard.png","jupitercard.png","womancard2.png","mancard.png","indoorcard2.png","outdoorcard2.png","o",2,"obj",0,"new",1,501,1,21.43561644,1
"MotER_501",1,"4","2","1433","1","2","1","obj12F","1","mooncard.png","jupitercard.png","womancard2.png","mancard.png","indoorcard2.png","outdoorcard2.png","o",5,"obj",0,"new",2,501,1,21.43561644,1
"MotER_501",1,"9","2","642","1","2","1","obj12T","0","mooncard.png","jupitercard.png","womancard2.png","mancard.png","indoorcard2.png","outdoorcard2.png","o",10,"obj",0,"new",3,501,1,21.43561644,1
"MotER_501",1,"10","1","669","1","2","1","obj12T","1","mooncard.png","jupitercard.png","womancard2.png","mancard.png","indoorcard2.png","outdoorcard2.png","o",11,"obj",1,"new",4,501,1,21.43561644,1
"MotER_501",1,"11","1","665","1","2","1","obj12T","1","mooncard.png","jupitercard.png","womancard2.png","mancard.png","indoorcard2.png","outdoorcard2.png","o",12,"obj",1,"new",5,501,1,21.43561644,1
"MotER_501",1,"17","1","1169","1","2","1","obj12T","1","mooncard.png","jupitercard.png","womancard2.png","mancard.png","indoorcard2.png","outdoorcard2.png","o",18,"obj",1,"new",6,501,1,21.43561644,1
"MotER_501",1,"20","2","1047","1","2","1","obj12T","0","mooncard.png","jupitercard.png","womancard2.png","mancard.png","indoorcard2.png","outdoorcard2.png","o",21,"obj",0,"new",7,501,1,21.43561644,1
"MotER_501",1,"22","1","1123","1","2","1","obj12T","1","mooncard.png","jupitercard.png","womancard2.png","mancard.png","indoorcard2.png","outdoorcard2.png","o",23,"obj",1,"new",8,501,1,21.43561644,1
"MotER_501",1,"23","1","885","1","2","1","obj12T","1","mooncard.png","jupitercard.png","womancard2.png","mancard.png","indoorcard2.png","outdoorcard2.png","o",24,"obj",1,"new",9,501,1,21.43561644,1
"MotER_501",1,"29","2","1070","1","2","1","obj12F","1","mooncard.png","jupitercard.png","womancard2.png","mancard.png","indoorcard2.png","outdoorcard2.png","o",30,"obj",0,"new",10,501,1,21.43561644,1
"MotER_501",2,"3","2","251","1","2","1","obj12T","0","mooncard.png","jupitercard.png","womancard2.png","mancard.png","indoorcard2.png","outdoorcard2.png","o",34,"obj",0,"new",11,501,1,21.43561644,1
"MotER_501",2,"4","1","818","1","2","1","obj12T","1","mooncard.png","jupitercard.png","womancard2.png","mancard.png","indoorcard2.png","outdoorcard2.png","o",35,"obj",1,"new",12,501,1,21.43561644,1
"MotER_501",2,"5","1","753","1","2","1","obj12F","0","mooncard.png","jupitercard.png","womancard2.png","mancard.png","indoorcard2.png","outdoorcard2.png","o",36,"obj",1,"new",13,501,1,21.43561644,1
"MotER_501",2,"9","2","1212","1","2","1","obj12T","0","mooncard.png","jupitercard.png","womancard2.png","mancard.png","indoorcard2.png","outdoorcard2.png","o",40,"obj",0,"new",14,501,1,21.43561644,1
"MotER_501",2,"11","1","1155","1","2","1","obj12T","1","mooncard.png","jupitercard.png","womancard2.png","mancard.png","indoorcard2.png","outdoorcard2.png","o",42,"obj",1,"new",15,501,1,21.43561644,1
"MotER_501",2,"12","2","736","1","2","1","obj12T","0","mooncard.png","jupitercard.png","womancard2.png","mancard.png","indoorcard2.png","outdoorcard2.png","o",43,"obj",0,"new",16,501,1,21.43561644,1
"MotER_501",2,"13","1","674","1","2","1","obj12T","1","mooncard.png","jupitercard.png","womancard2.png","mancard.png","indoorcard2.png","outdoorcard2.png","o",44,"obj",1,"new",17,501,1,21.43561644,1
"MotER_501",2,"14","1","388","1","2","1","obj12T","1","mooncard.png","jupitercard.png","womancard2.png","mancard.png","indoorcard2.png","outdoorcard2.png","o",45,"obj",1,"new",18,501,1,21.43561644,1
"MotER_501",2,"25","1","2288","1","2","1","obj12F","0","mooncard.png","jupitercard.png","womancard2.png","mancard.png","indoorcard2.png","outdoorcard2.png","o",56,"obj",1,"new",19,501,1,21.43561644,1
"MotER_501",2,"26","1","492","1","2","1","obj12T","1","mooncard.png","jupitercard.png","womancard2.png","mancard.png","indoorcard2.png","outdoorcard2.png","o",57,"obj",1,"new",20,501,1,21.43561644,1
"MotER_501",3,"1","1","1014","1","2","1","obj12T","1","mooncard.png","jupitercard.png","womancard2.png","mancard.png","indoorcard2.png","outdoorcard2.png","o",62,"obj",1,"new",21,501,1,21.43561644,1
"MotER_501",3,"4","2","941","1","2","1","obj12F","1","mooncard.png","jupitercard.png","womancard2.png","mancard.png","indoorcard2.png","outdoorcard2.png","o",65,"obj",0,"new",22,501,1,21.43561644,1
"MotER_501",3,"5","2","863","1","2","1","obj12T","0","mooncard.png","jupitercard.png","womancard2.png","mancard.png","indoorcard2.png","outdoorcard2.png","o",66,"obj",0,"new",23,501,1,21.43561644,1
"MotER_501",3,"6","2","1426","1","2","1","obj12T","0","mooncard.png","jupitercard.png","womancard2.png","mancard.png","indoorcard2.png","outdoorcard2.png","o",67,"obj",0,"new",24,501,1,21.43561644,1
"MotER_501",3,"9","2","1929","1","2","1","obj12T","0","mooncard.png","jupitercard.png","womancard2.png","mancard.png","indoorcard2.png","outdoorcard2.png","o",70,"obj",0,"new",25,501,1,21.43561644,1
"MotER_501",3,"10","2","1799","1","2","1","obj12F","1","mooncard.png","jupitercard.png","womancard2.png","mancard.png","indoorcard2.png","outdoorcard2.png","o",71,"obj",0,"new",26,501,1,21.43561644,1
"MotER_501",3,"15","2","1716","1","2","1","obj12T","0","mooncard.png","jupitercard.png","womancard2.png","mancard.png","indoorcard2.png","outdoorcard2.png","o",76,"obj",0,"new",27,501,1,21.43561644,1
"MotER_501",3,"16","1","905","1","2","1","obj12T","1","mooncard.png","jupitercard.png","womancard2.png","mancard.png","indoorcard2.png","outdoorcard2.png","o",77,"obj",1,"new",28,501,1,21.43561644,1
"MotER_501",3,"22","1","789","1","2","1","obj12T","1","mooncard.png","jupitercard.png","womancard2.png","mancard.png","indoorcard2.png","outdoorcard2.png","o",83,"obj",1,"new",29,501,1,21.43561644,1
"MotER_501",3,"27","1","1139","1","2","1","obj12T","1","mooncard.png","jupitercard.png","womancard2.png","mancard.png","indoorcard2.png","outdoorcard2.png","o",88,"obj",1,"new",30,501,1,21.43561644,1
"MotER_501",4,"1","1","766","1","2","1","obj12T","1","mooncard.png","jupitercard.png","womancard2.png","mancard.png","indoorcard2.png","outdoorcard2.png","o",92,"obj",1,"new",31,501,1,21.43561644,1
"MotER_501",4,"6","1","805","1","2","1","obj12T","1","mooncard.png","jupitercard.png","womancard2.png","mancard.png","indoorcard2.png","outdoorcard2.png","o",97,"obj",1,"new",32,501,1,21.43561644,1
"MotER_501",4,"10","1","584","1","2","1","obj12T","1","mooncard.png","jupitercard.png","womancard2.png","mancard.png","indoorcard2.png","outdoorcard2.png","o",101,"obj",1,"new",33,501,1,21.43561644,1
"MotER_501",4,"11","1","567","1","2","1","obj12T","1","mooncard.png","jupitercard.png","womancard2.png","mancard.png","indoorcard2.png","outdoorcard2.png","o",102,"obj",1,"new",34,501,1,21.43561644,1
"MotER_501",4,"15","1","403","1","2","1","obj12T","1","mooncard.png","jupitercard.png","womancard2.png","mancard.png","indoorcard2.png","outdoorcard2.png","o",106,"obj",1,"new",35,501,1,21.43561644,1
"MotER_501",4,"17","1","649","1","2","1","obj12T","1","mooncard.png","jupitercard.png","womancard2.png","mancard.png","indoorcard2.png","outdoorcard2.png","o",108,"obj",1,"new",36,501,1,21.43561644,1
"MotER_501",4,"20","1","1162","1","2","1","obj12T","1","mooncard.png","jupitercard.png","womancard2.png","mancard.png","indoorcard2.png","outdoorcard2.png","o",111,"obj",1,"new",37,501,1,21.43561644,1
"MotER_501",4,"22","1","574","1","2","1","obj12F","0","mooncard.png","jupitercard.png","womancard2.png","mancard.png","indoorcard2.png","outdoorcard2.png","o",113,"obj",1,"new",38,501,1,21.43561644,1
"MotER_501",4,"27","1","555","1","2","1","obj12T","1","mooncard.png","jupitercard.png","womancard2.png","mancard.png","indoorcard2.png","outdoorcard2.png","o",118,"obj",1,"new",39,501,1,21.43561644,1
"MotER_501",4,"29","1","537","1","2","1","obj12F","0","mooncard.png","jupitercard.png","womancard2.png","mancard.png","indoorcard2.png","outdoorcard2.png","o",120,"obj",1,"new",40,501,1,21.43561644,1
"MotER_501",5,"4","2","722","1","2","1","obj12F","1","mooncard.png","jupitercard.png","womancard2.png","mancard.png","indoorcard2.png","outdoorcard2.png","o",125,"obj",0,"new",41,501,1,21.43561644,1
"MotER_501",5,"6","1","857","1","2","1","obj12F","0","mooncard.png","jupitercard.png","womancard2.png","mancard.png","indoorcard2.png","outdoorcard2.png","o",127,"obj",1,"new",42,501,1,21.43561644,1
"MotER_501",5,"7","1","1121","1","2","1","obj12T","1","mooncard.png","jupitercard.png","womancard2.png","mancard.png","indoorcard2.png","outdoorcard2.png","o",128,"obj",1,"new",43,501,1,21.43561644,1
"MotER_501",5,"12","1","1205","1","2","1","obj12T","1","mooncard.png","jupitercard.png","womancard2.png","mancard.png","indoorcard2.png","outdoorcard2.png","o",133,"obj",1,"new",44,501,1,21.43561644,1
"MotER_501",5,"18","1","724","1","2","1","obj12T","1","mooncard.png","jupitercard.png","womancard2.png","mancard.png","indoorcard2.png","outdoorcard2.png","o",139,"obj",1,"new",45,501,1,21.43561644,1
"MotER_501",5,"21","1","540","1","2","1","obj12T","1","mooncard.png","jupitercard.png","womancard2.png","mancard.png","indoorcard2.png","outdoorcard2.png","o",142,"obj",1,"new",46,501,1,21.43561644,1
"MotER_501",5,"22","1","875","1","2","1","obj12T","1","mooncard.png","jupitercard.png","womancard2.png","mancard.png","indoorcard2.png","outdoorcard2.png","o",143,"obj",1,"new",47,501,1,21.43561644,1
"MotER_501",5,"25","1","767","1","2","1","obj12T","1","mooncard.png","jupitercard.png","womancard2.png","mancard.png","indoorcard2.png","outdoorcard2.png","o",146,"obj",1,"new",48,501,1,21.43561644,1
"MotER_501",5,"27","1","489","1","2","1","obj12T","1","mooncard.png","jupitercard.png","womancard2.png","mancard.png","indoorcard2.png","outdoorcard2.png","o",148,"obj",1,"new",49,501,1,21.43561644,1
"MotER_501",5,"28","1","652","1","2","1","obj12T","1","mooncard.png","jupitercard.png","womancard2.png","mancard.png","indoorcard2.png","outdoorcard2.png","o",149,"obj",1,"new",50,501,1,21.43561644,1
"MotER_501",6,"9","1","558","1","2","1","obj12F","0","mooncard.png","jupitercard.png","womancard2.png","mancard.png","indoorcard2.png","outdoorcard2.png","o",160,"obj",1,"new",51,501,1,21.43561644,1
"MotER_501",6,"11","1","584","1","2","1","obj12T","1","mooncard.png","jupitercard.png","womancard2.png","mancard.png","indoorcard2.png","outdoorcard2.png","o",162,"obj",1,"new",52,501,1,21.43561644,1
"MotER_501",6,"17","1","706","1","2","1","obj12T","1","mooncard.png","jupitercard.png","womancard2.png","mancard.png","indoorcard2.png","outdoorcard2.png","o",168,"obj",1,"new",53,501,1,21.43561644,1
"MotER_501",6,"19","1","575","1","2","1","obj12T","1","mooncard.png","jupitercard.png","womancard2.png","mancard.png","indoorcard2.png","outdoorcard2.png","o",170,"obj",1,"new",54,501,1,21.43561644,1
"MotER_501",6,"22","1","639","1","2","1","obj12T","1","mooncard.png","jupitercard.png","womancard2.png","mancard.png","indoorcard2.png","outdoorcard2.png","o",173,"obj",1,"new",55,501,1,21.43561644,1
"MotER_501",6,"24","2","1403","1","2","1","obj12T","0","mooncard.png","jupitercard.png","womancard2.png","mancard.png","indoorcard2.png","outdoorcard2.png","o",175,"obj",0,"new",56,501,1,21.43561644,1
"MotER_501",6,"26","1","799","1","2","1","obj12F","0","mooncard.png","jupitercard.png","womancard2.png","mancard.png","indoorcard2.png","outdoorcard2.png","o",177,"obj",1,"new",57,501,1,21.43561644,1
"MotER_501",6,"27","1","1411","1","2","1","obj12T","1","mooncard.png","jupitercard.png","womancard2.png","mancard.png","indoorcard2.png","outdoorcard2.png","o",178,"obj",1,"new",58,501,1,21.43561644,1
"MotER_501",6,"28","1","905","1","2","1","obj12T","1","mooncard.png","jupitercard.png","womancard2.png","mancard.png","indoorcard2.png","outdoorcard2.png","o",179,"obj",1,"new",59,501,1,21.43561644,1
"MotER_501",6,"29","1","849","1","2","1","obj12T","1","mooncard.png","jupitercard.png","womancard2.png","mancard.png","indoorcard2.png","outdoorcard2.png","o",180,"obj",1,"new",60,501,1,21.43561644,1
"MotER_501",1,"3","1","1327","1","2","1","scene12T","1","mooncard.png","jupitercard.png","womancard2.png","mancard.png","indoorcard2.png","outdoorcard2.png","o",4,"scene",1,"high",1,501,1,21.43561644,1
"MotER_501",1,"7","1","1040","1","2","1","scene12T","1","mooncard.png","jupitercard.png","womancard2.png","mancard.png","indoorcard2.png","outdoorcard2.png","o",8,"scene",1,"high",2,501,1,21.43561644,1
"MotER_501",1,"8","1","831","1","2","1","scene12T","1","mooncard.png","jupitercard.png","womancard2.png","mancard.png","indoorcard2.png","outdoorcard2.png","o",9,"scene",1,"high",3,501,1,21.43561644,1
"MotER_501",1,"13","1","1104","1","2","1","scene12T","1","mooncard.png","jupitercard.png","womancard2.png","mancard.png","indoorcard2.png","outdoorcard2.png","o",14,"scene",1,"high",4,501,1,21.43561644,1
"MotER_501",1,"14","2","1240","1","2","1","scene12F","1","mooncard.png","jupitercard.png","womancard2.png","mancard.png","indoorcard2.png","outdoorcard2.png","o",15,"scene",0,"high",5,501,1,21.43561644,1
"MotER_501",1,"18","2","895","1","2","1","scene12T","0","mooncard.png","jupitercard.png","womancard2.png","mancard.png","indoorcard2.png","outdoorcard2.png","o",19,"scene",0,"high",6,501,1,21.43561644,1
"MotER_501",1,"19","1","863","1","2","1","scene12T","1","mooncard.png","jupitercard.png","womancard2.png","mancard.png","indoorcard2.png","outdoorcard2.png","o",20,"scene",1,"high",7,501,1,21.43561644,1
"MotER_501",1,"24","1","1226","1","2","1","scene12T","1","mooncard.png","jupitercard.png","womancard2.png","mancard.png","indoorcard2.png","outdoorcard2.png","o",25,"scene",1,"high",8,501,1,21.43561644,1
"MotER_501",1,"25","1","587","1","2","1","scene12F","0","mooncard.png","jupitercard.png","womancard2.png","mancard.png","indoorcard2.png","outdoorcard2.png","o",26,"scene",1,"high",9,501,1,21.43561644,1
"MotER_501",1,"26","1","762","1","2","1","scene12F","0","mooncard.png","jupitercard.png","womancard2.png","mancard.png","indoorcard2.png","outdoorcard2.png","o",27,"scene",1,"high",10,501,1,21.43561644,1
"MotER_501",2,"0","2","651","1","2","1","scene12T","0","mooncard.png","jupitercard.png","womancard2.png","mancard.png","indoorcard2.png","outdoorcard2.png","o",31,"scene",0,"high",11,501,1,21.43561644,1
"MotER_501",2,"2","1","386","1","2","1","scene12T","1","mooncard.png","jupitercard.png","womancard2.png","mancard.png","indoorcard2.png","outdoorcard2.png","o",33,"scene",1,"high",12,501,1,21.43561644,1
"MotER_501",2,"6","2","749","1","2","1","scene12T","0","mooncard.png","jupitercard.png","womancard2.png","mancard.png","indoorcard2.png","outdoorcard2.png","o",37,"scene",0,"high",13,501,1,21.43561644,1
"MotER_501",2,"7","1","1032","1","2","1","scene12F","0","mooncard.png","jupitercard.png","womancard2.png","mancard.png","indoorcard2.png","outdoorcard2.png","o",38,"scene",1,"high",14,501,1,21.43561644,1
"MotER_501",2,"16","1","373","1","2","1","scene12F","0","mooncard.png","jupitercard.png","womancard2.png","mancard.png","indoorcard2.png","outdoorcard2.png","o",47,"scene",1,"high",15,501,1,21.43561644,1
"MotER_501",2,"17","2","1255","1","2","1","scene12F","1","mooncard.png","jupitercard.png","womancard2.png","mancard.png","indoorcard2.png","outdoorcard2.png","o",48,"scene",0,"high",16,501,1,21.43561644,1
"MotER_501",2,"18","2","755","1","2","1","scene12T","0","mooncard.png","jupitercard.png","womancard2.png","mancard.png","indoorcard2.png","outdoorcard2.png","o",49,"scene",0,"high",17,501,1,21.43561644,1
"MotER_501",2,"22","2","1250","1","2","1","scene12T","0","mooncard.png","jupitercard.png","womancard2.png","mancard.png","indoorcard2.png","outdoorcard2.png","o",53,"scene",0,"high",18,501,1,21.43561644,1
"MotER_501",2,"27","2","446","1","2","1","scene12T","0","mooncard.png","jupitercard.png","womancard2.png","mancard.png","indoorcard2.png","outdoorcard2.png","o",58,"scene",0,"high",19,501,1,21.43561644,1
"MotER_501",2,"28","1","247","1","2","1","scene12T","1","mooncard.png","jupitercard.png","womancard2.png","mancard.png","indoorcard2.png","outdoorcard2.png","o",59,"scene",1,"high",20,501,1,21.43561644,1
"MotER_501",3,"3","1","2127","1","2","1","scene12F","0","mooncard.png","jupitercard.png","womancard2.png","mancard.png","indoorcard2.png","outdoorcard2.png","o",64,"scene",1,"high",21,501,1,21.43561644,1
"MotER_501",3,"12","2","291","1","2","1","scene12T","0","mooncard.png","jupitercard.png","womancard2.png","mancard.png","indoorcard2.png","outdoorcard2.png","o",73,"scene",0,"high",22,501,1,21.43561644,1
"MotER_501",3,"14","2","453","1","2","1","scene12T","0","mooncard.png","jupitercard.png","womancard2.png","mancard.png","indoorcard2.png","outdoorcard2.png","o",75,"scene",0,"high",23,501,1,21.43561644,1
"MotER_501",3,"17","1","976","1","2","1","scene12T","1","mooncard.png","jupitercard.png","womancard2.png","mancard.png","indoorcard2.png","outdoorcard2.png","o",78,"scene",1,"high",24,501,1,21.43561644,1
"MotER_501",3,"18","1","641","1","2","1","scene12T","1","mooncard.png","jupitercard.png","womancard2.png","mancard.png","indoorcard2.png","outdoorcard2.png","o",79,"scene",1,"high",25,501,1,21.43561644,1
"MotER_501",3,"20","1","785","1","2","1","scene12T","1","mooncard.png","jupitercard.png","womancard2.png","mancard.png","indoorcard2.png","outdoorcard2.png","o",81,"scene",1,"high",26,501,1,21.43561644,1
"MotER_501",3,"21","1","571","1","2","1","scene12T","1","mooncard.png","jupitercard.png","womancard2.png","mancard.png","indoorcard2.png","outdoorcard2.png","o",82,"scene",1,"high",27,501,1,21.43561644,1
"MotER_501",3,"24","1","796","1","2","1","scene12F","0","mooncard.png","jupitercard.png","womancard2.png","mancard.png","indoorcard2.png","outdoorcard2.png","o",85,"scene",1,"high",28,501,1,21.43561644,1
"MotER_501",3,"26","1","1398","1","2","1","scene12F","0","mooncard.png","jupitercard.png","womancard2.png","mancard.png","indoorcard2.png","outdoorcard2.png","o",87,"scene",1,"high",29,501,1,21.43561644,1
"MotER_501",3,"29","1","835","1","2","1","scene12T","1","mooncard.png","jupitercard.png","womancard2.png","mancard.png","indoorcard2.png","outdoorcard2.png","o",90,"scene",1,"high",30,501,1,21.43561644,1
"MotER_501",4,"2","1","658","1","2","1","scene12T","1","mooncard.png","jupitercard.png","womancard2.png","mancard.png","indoorcard2.png","outdoorcard2.png","o",93,"scene",1,"high",31,501,1,21.43561644,1
"MotER_501",4,"4","1","573","1","2","1","scene12T","1","mooncard.png","jupitercard.png","womancard2.png","mancard.png","indoorcard2.png","outdoorcard2.png","o",95,"scene",1,"high",32,501,1,21.43561644,1
"MotER_501",4,"5","1","585","1","2","1","scene12F","0","mooncard.png","jupitercard.png","womancard2.png","mancard.png","indoorcard2.png","outdoorcard2.png","o",96,"scene",1,"high",33,501,1,21.43561644,1
"MotER_501",4,"7","1","1174","1","2","1","scene12T","1","mooncard.png","jupitercard.png","womancard2.png","mancard.png","indoorcard2.png","outdoorcard2.png","o",98,"scene",1,"high",34,501,1,21.43561644,1
"MotER_501",4,"9","1","588","1","2","1","scene12T","1","mooncard.png","jupitercard.png","womancard2.png","mancard.png","indoorcard2.png","outdoorcard2.png","o",100,"scene",1,"high",35,501,1,21.43561644,1
"MotER_501",4,"14","1","539","1","2","1","scene12F","0","mooncard.png","jupitercard.png","womancard2.png","mancard.png","indoorcard2.png","outdoorcard2.png","o",105,"scene",1,"high",36,501,1,21.43561644,1
"MotER_501",4,"18","1","764","1","2","1","scene12T","1","mooncard.png","jupitercard.png","womancard2.png","mancard.png","indoorcard2.png","outdoorcard2.png","o",109,"scene",1,"high",37,501,1,21.43561644,1
"MotER_501",4,"19","1","537","1","2","1","scene12T","1","mooncard.png","jupitercard.png","womancard2.png","mancard.png","indoorcard2.png","outdoorcard2.png","o",110,"scene",1,"high",38,501,1,21.43561644,1
"MotER_501",4,"23","2","850","1","2","1","scene12T","0","mooncard.png","jupitercard.png","womancard2.png","mancard.png","indoorcard2.png","outdoorcard2.png","o",114,"scene",0,"high",39,501,1,21.43561644,1
"MotER_501",4,"24","1","741","1","2","1","scene12F","0","mooncard.png","jupitercard.png","womancard2.png","mancard.png","indoorcard2.png","outdoorcard2.png","o",115,"scene",1,"high",40,501,1,21.43561644,1
"MotER_501",5,"0","1","628","1","2","1","scene12T","1","mooncard.png","jupitercard.png","womancard2.png","mancard.png","indoorcard2.png","outdoorcard2.png","o",121,"scene",1,"high",41,501,1,21.43561644,1
"MotER_501",5,"1","1","660","1","2","1","scene12T","1","mooncard.png","jupitercard.png","womancard2.png","mancard.png","indoorcard2.png","outdoorcard2.png","o",122,"scene",1,"high",42,501,1,21.43561644,1
"MotER_501",5,"5","2","974","1","2","1","scene12T","0","mooncard.png","jupitercard.png","womancard2.png","mancard.png","indoorcard2.png","outdoorcard2.png","o",126,"scene",0,"high",43,501,1,21.43561644,1
"MotER_501",5,"9","1","711","1","2","1","scene12F","0","mooncard.png","jupitercard.png","womancard2.png","mancard.png","indoorcard2.png","outdoorcard2.png","o",130,"scene",1,"high",44,501,1,21.43561644,1
"MotER_501",5,"11","1","1057","1","2","1","scene12T","1","mooncard.png","jupitercard.png","womancard2.png","mancard.png","indoorcard2.png","outdoorcard2.png","o",132,"scene",1,"high",45,501,1,21.43561644,1
"MotER_501",5,"13","1","799","1","2","1","scene12T","1","mooncard.png","jupitercard.png","womancard2.png","mancard.png","indoorcard2.png","outdoorcard2.png","o",134,"scene",1,"high",46,501,1,21.43561644,1
"MotER_501",5,"14","1","790","1","2","1","scene12F","0","mooncard.png","jupitercard.png","womancard2.png","mancard.png","indoorcard2.png","outdoorcard2.png","o",135,"scene",1,"high",47,501,1,21.43561644,1
"MotER_501",5,"16","1","1201","1","2","1","scene12T","1","mooncard.png","jupitercard.png","womancard2.png","mancard.png","indoorcard2.png","outdoorcard2.png","o",137,"scene",1,"high",48,501,1,21.43561644,1
"MotER_501",5,"26","1","604","1","2","1","scene12T","1","mooncard.png","jupitercard.png","womancard2.png","mancard.png","indoorcard2.png","outdoorcard2.png","o",147,"scene",1,"high",49,501,1,21.43561644,1
"MotER_501",5,"29","1","708","1","2","1","scene12F","0","mooncard.png","jupitercard.png","womancard2.png","mancard.png","indoorcard2.png","outdoorcard2.png","o",150,"scene",1,"high",50,501,1,21.43561644,1
"MotER_501",6,"3","1","682","1","2","1","scene12T","1","mooncard.png","jupitercard.png","womancard2.png","mancard.png","indoorcard2.png","outdoorcard2.png","o",154,"scene",1,"high",51,501,1,21.43561644,1
"MotER_501",6,"4","1","652","1","2","1","scene12F","0","mooncard.png","jupitercard.png","womancard2.png","mancard.png","indoorcard2.png","outdoorcard2.png","o",155,"scene",1,"high",52,501,1,21.43561644,1
"MotER_501",6,"6","1","642","1","2","1","scene12T","1","mooncard.png","jupitercard.png","womancard2.png","mancard.png","indoorcard2.png","outdoorcard2.png","o",157,"scene",1,"high",53,501,1,21.43561644,1
"MotER_501",6,"8","2","456","1","2","1","scene12T","0","mooncard.png","jupitercard.png","womancard2.png","mancard.png","indoorcard2.png","outdoorcard2.png","o",159,"scene",0,"high",54,501,1,21.43561644,1
"MotER_501",6,"12","1","621","1","2","1","scene12T","1","mooncard.png","jupitercard.png","womancard2.png","mancard.png","indoorcard2.png","outdoorcard2.png","o",163,"scene",1,"high",55,501,1,21.43561644,1
"MotER_501",6,"13","1","753","1","2","1","scene12T","1","mooncard.png","jupitercard.png","womancard2.png","mancard.png","indoorcard2.png","outdoorcard2.png","o",164,"scene",1,"high",56,501,1,21.43561644,1
"MotER_501",6,"15","1","546","1","2","1","scene12T","1","mooncard.png","jupitercard.png","womancard2.png","mancard.png","indoorcard2.png","outdoorcard2.png","o",166,"scene",1,"high",57,501,1,21.43561644,1
"MotER_501",6,"18","1","498","1","2","1","scene12T","1","mooncard.png","jupitercard.png","womancard2.png","mancard.png","indoorcard2.png","outdoorcard2.png","o",169,"scene",1,"high",58,501,1,21.43561644,1
"MotER_501",6,"21","1","690","1","2","1","scene12F","0","mooncard.png","jupitercard.png","womancard2.png","mancard.png","indoorcard2.png","outdoorcard2.png","o",172,"scene",1,"high",59,501,1,21.43561644,1
"MotER_501",6,"23","1","544","1","2","1","scene12F","0","mooncard.png","jupitercard.png","womancard2.png","mancard.png","indoorcard2.png","outdoorcard2.png","o",174,"scene",1,"high",60,501,1,21.43561644,1
"MotER_502",1,"0","None","None","2","2","2","face12T","None","jupitercard.png","mooncard.png","mancard2.png","womancard2.png","outdoorcard.png","indoorcard2.png","e",1,"face",0,"high",1,502,0,24.99178082,1
"MotER_502",1,"1","1","599","2","2","2","face12F","1","jupitercard.png","mooncard.png","mancard2.png","womancard2.png","outdoorcard.png","indoorcard2.png","e",2,"face",0,"high",2,502,0,24.99178082,1
"MotER_502",1,"2","1","917","2","2","2","face12F","1","jupitercard.png","mooncard.png","mancard2.png","womancard2.png","outdoorcard.png","indoorcard2.png","e",3,"face",0,"high",3,502,0,24.99178082,1
"MotER_502",1,"4","1","914","2","2","2","face12T","0","jupitercard.png","mooncard.png","mancard2.png","womancard2.png","outdoorcard.png","indoorcard2.png","e",5,"face",0,"high",4,502,0,24.99178082,1
"MotER_502",1,"11","1","907","2","2","2","face12T","0","jupitercard.png","mooncard.png","mancard2.png","womancard2.png","outdoorcard.png","indoorcard2.png","e",12,"face",0,"high",5,502,0,24.99178082,1
"MotER_502",1,"13","1","1094","2","2","2","face12F","1","jupitercard.png","mooncard.png","mancard2.png","womancard2.png","outdoorcard.png","indoorcard2.png","e",14,"face",0,"high",6,502,0,24.99178082,1
"MotER_502",1,"17","1","941","2","2","2","face12T","0","jupitercard.png","mooncard.png","mancard2.png","womancard2.png","outdoorcard.png","indoorcard2.png","e",18,"face",0,"high",7,502,0,24.99178082,1
"MotER_502",1,"23","1","681","2","2","2","face12T","0","jupitercard.png","mooncard.png","mancard2.png","womancard2.png","outdoorcard.png","indoorcard2.png","e",24,"face",0,"high",8,502,0,24.99178082,1
"MotER_502",1,"25","2","740","2","2","2","face12T","1","jupitercard.png","mooncard.png","mancard2.png","womancard2.png","outdoorcard.png","indoorcard2.png","e",26,"face",1,"high",9,502,0,24.99178082,1
"MotER_502",1,"28","2","842","2","2","2","face12T","1","jupitercard.png","mooncard.png","mancard2.png","womancard2.png","outdoorcard.png","indoorcard2.png","e",29,"face",1,"high",10,502,0,24.99178082,1
"MotER_502",2,"4","2","893","2","2","2","face12T","1","jupitercard.png","mooncard.png","mancard2.png","womancard2.png","outdoorcard.png","indoorcard2.png","e",35,"face",1,"high",11,502,0,24.99178082,1
"MotER_502",2,"12","2","721","2","2","2","face12F","0","jupitercard.png","mooncard.png","mancard2.png","womancard2.png","outdoorcard.png","indoorcard2.png","e",43,"face",1,"high",12,502,0,24.99178082,1
"MotER_502",2,"14","2","664","2","2","2","face12T","1","jupitercard.png","mooncard.png","mancard2.png","womancard2.png","outdoorcard.png","indoorcard2.png","e",45,"face",1,"high",13,502,0,24.99178082,1
"MotER_502",2,"15","2","490","2","2","2","face12T","1","jupitercard.png","mooncard.png","mancard2.png","womancard2.png","outdoorcard.png","indoorcard2.png","e",46,"face",1,"high",14,502,0,24.99178082,1
"MotER_502",2,"17","2","544","2","2","2","face12T","1","jupitercard.png","mooncard.png","mancard2.png","womancard2.png","outdoorcard.png","indoorcard2.png","e",48,"face",1,"high",15,502,0,24.99178082,1
"MotER_502",2,"19","2","550","2","2","2","face12T","1","jupitercard.png","mooncard.png","mancard2.png","womancard2.png","outdoorcard.png","indoorcard2.png","e",50,"face",1,"high",16,502,0,24.99178082,1
"MotER_502",2,"20","2","748","2","2","2","face12T","1","jupitercard.png","mooncard.png","mancard2.png","womancard2.png","outdoorcard.png","indoorcard2.png","e",51,"face",1,"high",17,502,0,24.99178082,1
"MotER_502",2,"21","2","413","2","2","2","face12T","1","jupitercard.png","mooncard.png","mancard2.png","womancard2.png","outdoorcard.png","indoorcard2.png","e",52,"face",1,"high",18,502,0,24.99178082,1
"MotER_502",2,"23","2","569","2","2","2","face12F","0","jupitercard.png","mooncard.png","mancard2.png","womancard2.png","outdoorcard.png","indoorcard2.png","e",54,"face",1,"high",19,502,0,24.99178082,1
"MotER_502",2,"26","2","589","2","2","2","face12F","0","jupitercard.png","mooncard.png","mancard2.png","womancard2.png","outdoorcard.png","indoorcard2.png","e",57,"face",1,"high",20,502,0,24.99178082,1
"MotER_502",3,"3","2","1006","2","2","2","face12T","1","jupitercard.png","mooncard.png","mancard2.png","womancard2.png","outdoorcard.png","indoorcard2.png","e",64,"face",1,"high",21,502,0,24.99178082,1
"MotER_502",3,"8","2","583","2","2","2","face12T","1","jupitercard.png","mooncard.png","mancard2.png","womancard2.png","outdoorcard.png","indoorcard2.png","e",69,"face",1,"high",22,502,0,24.99178082,1
"MotER_502",3,"12","2","309","2","2","2","face12F","0","jupitercard.png","mooncard.png","mancard2.png","womancard2.png","outdoorcard.png","indoorcard2.png","e",73,"face",1,"high",23,502,0,24.99178082,1
"MotER_502",3,"13","2","513","2","2","2","face12T","1","jupitercard.png","mooncard.png","mancard2.png","womancard2.png","outdoorcard.png","indoorcard2.png","e",74,"face",1,"high",24,502,0,24.99178082,1
"MotER_502",3,"16","2","668","2","2","2","face12T","1","jupitercard.png","mooncard.png","mancard2.png","womancard2.png","outdoorcard.png","indoorcard2.png","e",77,"face",1,"high",25,502,0,24.99178082,1
"MotER_502",3,"19","2","487","2","2","2","face12T","1","jupitercard.png","mooncard.png","mancard2.png","womancard2.png","outdoorcard.png","indoorcard2.png","e",80,"face",1,"high",26,502,0,24.99178082,1
"MotER_502",3,"20","2","556","2","2","2","face12T","1","jupitercard.png","mooncard.png","mancard2.png","womancard2.png","outdoorcard.png","indoorcard2.png","e",81,"face",1,"high",27,502,0,24.99178082,1
"MotER_502",3,"22","2","343","2","2","2","face12F","0","jupitercard.png","mooncard.png","mancard2.png","womancard2.png","outdoorcard.png","indoorcard2.png","e",83,"face",1,"high",28,502,0,24.99178082,1
"MotER_502",3,"23","2","390","2","2","2","face12T","1","jupitercard.png","mooncard.png","mancard2.png","womancard2.png","outdoorcard.png","indoorcard2.png","e",84,"face",1,"high",29,502,0,24.99178082,1
"MotER_502",3,"24","2","408","2","2","2","face12F","0","jupitercard.png","mooncard.png","mancard2.png","womancard2.png","outdoorcard.png","indoorcard2.png","e",85,"face",1,"high",30,502,0,24.99178082,1
"MotER_502",4,"0","2","424","2","2","2","face12T","1","jupitercard.png","mooncard.png","mancard2.png","womancard2.png","outdoorcard.png","indoorcard2.png","e",91,"face",1,"high",31,502,0,24.99178082,1
"MotER_502",4,"10","2","569","2","2","2","face12T","1","jupitercard.png","mooncard.png","mancard2.png","womancard2.png","outdoorcard.png","indoorcard2.png","e",101,"face",1,"high",32,502,0,24.99178082,1
"MotER_502",4,"12","2","704","2","2","2","face12T","1","jupitercard.png","mooncard.png","mancard2.png","womancard2.png","outdoorcard.png","indoorcard2.png","e",103,"face",1,"high",33,502,0,24.99178082,1
"MotER_502",4,"14","2","445","2","2","2","face12T","1","jupitercard.png","mooncard.png","mancard2.png","womancard2.png","outdoorcard.png","indoorcard2.png","e",105,"face",1,"high",34,502,0,24.99178082,1
"MotER_502",4,"15","2","475","2","2","2","face12T","1","jupitercard.png","mooncard.png","mancard2.png","womancard2.png","outdoorcard.png","indoorcard2.png","e",106,"face",1,"high",35,502,0,24.99178082,1
"MotER_502",4,"18","2","680","2","2","2","face12F","0","jupitercard.png","mooncard.png","mancard2.png","womancard2.png","outdoorcard.png","indoorcard2.png","e",109,"face",1,"high",36,502,0,24.99178082,1
"MotER_502",4,"19","2","504","2","2","2","face12F","0","jupitercard.png","mooncard.png","mancard2.png","womancard2.png","outdoorcard.png","indoorcard2.png","e",110,"face",1,"high",37,502,0,24.99178082,1
"MotER_502",4,"20","2","489","2","2","2","face12F","0","jupitercard.png","mooncard.png","mancard2.png","womancard2.png","outdoorcard.png","indoorcard2.png","e",111,"face",1,"high",38,502,0,24.99178082,1
"MotER_502",4,"21","None","None","2","2","2","face12T","None","jupitercard.png","mooncard.png","mancard2.png","womancard2.png","outdoorcard.png","indoorcard2.png","e",112,"face",0,"high",39,502,0,24.99178082,1
"MotER_502",4,"22","2","749","2","2","2","face12T","1","jupitercard.png","mooncard.png","mancard2.png","womancard2.png","outdoorcard.png","indoorcard2.png","e",113,"face",1,"high",40,502,0,24.99178082,1
"MotER_502",5,"3","2","722","2","2","2","face12T","1","jupitercard.png","mooncard.png","mancard2.png","womancard2.png","outdoorcard.png","indoorcard2.png","e",124,"face",1,"high",41,502,0,24.99178082,1
"MotER_502",5,"4","2","389","2","2","2","face12T","1","jupitercard.png","mooncard.png","mancard2.png","womancard2.png","outdoorcard.png","indoorcard2.png","e",125,"face",1,"high",42,502,0,24.99178082,1
"MotER_502",5,"5","1","960","2","2","2","face12T","0","jupitercard.png","mooncard.png","mancard2.png","womancard2.png","outdoorcard.png","indoorcard2.png","e",126,"face",0,"high",43,502,0,24.99178082,1
"MotER_502",5,"6","2","437","2","2","2","face12T","1","jupitercard.png","mooncard.png","mancard2.png","womancard2.png","outdoorcard.png","indoorcard2.png","e",127,"face",1,"high",44,502,0,24.99178082,1
"MotER_502",5,"20","2","482","2","2","2","face12T","1","jupitercard.png","mooncard.png","mancard2.png","womancard2.png","outdoorcard.png","indoorcard2.png","e",141,"face",1,"high",45,502,0,24.99178082,1
"MotER_502",5,"21","2","430","2","2","2","face12F","0","jupitercard.png","mooncard.png","mancard2.png","womancard2.png","outdoorcard.png","indoorcard2.png","e",142,"face",1,"high",46,502,0,24.99178082,1
"MotER_502",5,"23","2","325","2","2","2","face12F","0","jupitercard.png","mooncard.png","mancard2.png","womancard2.png","outdoorcard.png","indoorcard2.png","e",144,"face",1,"high",47,502,0,24.99178082,1
"MotER_502",5,"26","2","442","2","2","2","face12T","1","jupitercard.png","mooncard.png","mancard2.png","womancard2.png","outdoorcard.png","indoorcard2.png","e",147,"face",1,"high",48,502,0,24.99178082,1
"MotER_502",5,"27","2","543","2","2","2","face12F","0","jupitercard.png","mooncard.png","mancard2.png","womancard2.png","outdoorcard.png","indoorcard2.png","e",148,"face",1,"high",49,502,0,24.99178082,1
"MotER_502",5,"28","2","380","2","2","2","face12T","1","jupitercard.png","mooncard.png","mancard2.png","womancard2.png","outdoorcard.png","indoorcard2.png","e",149,"face",1,"high",50,502,0,24.99178082,1
"MotER_502",6,"0","2","723","2","2","2","face12T","1","jupitercard.png","mooncard.png","mancard2.png","womancard2.png","outdoorcard.png","indoorcard2.png","e",151,"face",1,"high",51,502,0,24.99178082,1
"MotER_502",6,"7","2","1611","2","2","2","face12T","1","jupitercard.png","mooncard.png","mancard2.png","womancard2.png","outdoorcard.png","indoorcard2.png","e",158,"face",1,"high",52,502,0,24.99178082,1
"MotER_502",6,"8","2","489","2","2","2","face12T","1","jupitercard.png","mooncard.png","mancard2.png","womancard2.png","outdoorcard.png","indoorcard2.png","e",159,"face",1,"high",53,502,0,24.99178082,1
"MotER_502",6,"9","2","707","2","2","2","face12T","1","jupitercard.png","mooncard.png","mancard2.png","womancard2.png","outdoorcard.png","indoorcard2.png","e",160,"face",1,"high",54,502,0,24.99178082,1
"MotER_502",6,"11","2","301","2","2","2","face12F","0","jupitercard.png","mooncard.png","mancard2.png","womancard2.png","outdoorcard.png","indoorcard2.png","e",162,"face",1,"high",55,502,0,24.99178082,1
"MotER_502",6,"16","2","230","2","2","2","face12T","1","jupitercard.png","mooncard.png","mancard2.png","womancard2.png","outdoorcard.png","indoorcard2.png","e",167,"face",1,"high",56,502,0,24.99178082,1
"MotER_502",6,"20","2","727","2","2","2","face12T","1","jupitercard.png","mooncard.png","mancard2.png","womancard2.png","outdoorcard.png","indoorcard2.png","e",171,"face",1,"high",57,502,0,24.99178082,1
"MotER_502",6,"23","2","564","2","2","2","face12F","0","jupitercard.png","mooncard.png","mancard2.png","womancard2.png","outdoorcard.png","indoorcard2.png","e",174,"face",1,"high",58,502,0,24.99178082,1
"MotER_502",6,"26","2","599","2","2","2","face12F","0","jupitercard.png","mooncard.png","mancard2.png","womancard2.png","outdoorcard.png","indoorcard2.png","e",177,"face",1,"high",59,502,0,24.99178082,1
"MotER_502",6,"28","2","438","2","2","2","face12T","1","jupitercard.png","mooncard.png","mancard2.png","womancard2.png","outdoorcard.png","indoorcard2.png","e",179,"face",1,"high",60,502,0,24.99178082,1
"MotER_502",1,"3","1","1473","2","2","2","obj12T","0","jupitercard.png","mooncard.png","mancard2.png","womancard2.png","outdoorcard.png","indoorcard2.png","e",4,"obj",0,"new",1,502,0,24.99178082,1
"MotER_502",1,"5","1","1564","2","2","2","obj12T","0","jupitercard.png","mooncard.png","mancard2.png","womancard2.png","outdoorcard.png","indoorcard2.png","e",6,"obj",0,"new",2,502,0,24.99178082,1
"MotER_502",1,"6","2","698","2","2","2","obj12T","1","jupitercard.png","mooncard.png","mancard2.png","womancard2.png","outdoorcard.png","indoorcard2.png","e",7,"obj",1,"new",3,502,0,24.99178082,1
"MotER_502",1,"7","2","803","2","2","2","obj12F","0","jupitercard.png","mooncard.png","mancard2.png","womancard2.png","outdoorcard.png","indoorcard2.png","e",8,"obj",1,"new",4,502,0,24.99178082,1
"MotER_502",1,"9","2","1132","2","2","2","obj12T","1","jupitercard.png","mooncard.png","mancard2.png","womancard2.png","outdoorcard.png","indoorcard2.png","e",10,"obj",1,"new",5,502,0,24.99178082,1
"MotER_502",1,"12","2","1069","2","2","2","obj12T","1","jupitercard.png","mooncard.png","mancard2.png","womancard2.png","outdoorcard.png","indoorcard2.png","e",13,"obj",1,"new",6,502,0,24.99178082,1
"MotER_502",1,"14","2","809","2","2","2","obj12T","1","jupitercard.png","mooncard.png","mancard2.png","womancard2.png","outdoorcard.png","indoorcard2.png","e",15,"obj",1,"new",7,502,0,24.99178082,1
"MotER_502",1,"20","2","902","2","2","2","obj12T","1","jupitercard.png","mooncard.png","mancard2.png","womancard2.png","outdoorcard.png","indoorcard2.png","e",21,"obj",1,"new",8,502,0,24.99178082,1
"MotER_502",1,"21","2","496","2","2","2","obj12F","0","jupitercard.png","mooncard.png","mancard2.png","womancard2.png","outdoorcard.png","indoorcard2.png","e",22,"obj",1,"new",9,502,0,24.99178082,1
"MotER_502",1,"29","2","698","2","2","2","obj12T","1","jupitercard.png","mooncard.png","mancard2.png","womancard2.png","outdoorcard.png","indoorcard2.png","e",30,"obj",1,"new",10,502,0,24.99178082,1
"MotER_502",2,"2","2","693","2","2","2","obj12F","0","jupitercard.png","mooncard.png","mancard2.png","womancard2.png","outdoorcard.png","indoorcard2.png","e",33,"obj",1,"new",11,502,0,24.99178082,1
"MotER_502",2,"3","2","908","2","2","2","obj12T","1","jupitercard.png","mooncard.png","mancard2.png","womancard2.png","outdoorcard.png","indoorcard2.png","e",34,"obj",1,"new",12,502,0,24.99178082,1
"MotER_502",2,"5","2","524","2","2","2","obj12T","1","jupitercard.png","mooncard.png","mancard2.png","womancard2.png","outdoorcard.png","indoorcard2.png","e",36,"obj",1,"new",13,502,0,24.99178082,1
"MotER_502",2,"6","2","576","2","2","2","obj12T","1","jupitercard.png","mooncard.png","mancard2.png","womancard2.png","outdoorcard.png","indoorcard2.png","e",37,"obj",1,"new",14,502,0,24.99178082,1
"MotER_502",2,"10","2","515","2","2","2","obj12T","1","jupitercard.png","mooncard.png","mancard2.png","womancard2.png","outdoorcard.png","indoorcard2.png","e",41,"obj",1,"new",15,502,0,24.99178082,1
"MotER_502",2,"16","2","803","2","2","2","obj12F","0","jupitercard.png","mooncard.png","mancard2.png","womancard2.png","outdoorcard.png","indoorcard2.png","e",47,"obj",1,"new",16,502,0,24.99178082,1
"MotER_502",2,"25","2","770","2","2","2","obj12T","1","jupitercard.png","mooncard.png","mancard2.png","womancard2.png","outdoorcard.png","indoorcard2.png","e",56,"obj",1,"new",17,502,0,24.99178082,1
"MotER_502",2,"27","2","445","2","2","2","obj12T","1","jupitercard.png","mooncard.png","mancard2.png","womancard2.png","outdoorcard.png","indoorcard2.png","e",58,"obj",1,"new",18,502,0,24.99178082,1
"MotER_502",2,"28","2","530","2","2","2","obj12T","1","jupitercard.png","mooncard.png","mancard2.png","womancard2.png","outdoorcard.png","indoorcard2.png","e",59,"obj",1,"new",19,502,0,24.99178082,1
"MotER_502",2,"29","2","700","2","2","2","obj12T","1","jupitercard.png","mooncard.png","mancard2.png","womancard2.png","outdoorcard.png","indoorcard2.png","e",60,"obj",1,"new",20,502,0,24.99178082,1
"MotER_502",3,"0","2","639","2","2","2","obj12T","1","jupitercard.png","mooncard.png","mancard2.png","womancard2.png","outdoorcard.png","indoorcard2.png","e",61,"obj",1,"new",21,502,0,24.99178082,1
"MotER_502",3,"1","2","530","2","2","2","obj12T","1","jupitercard.png","mooncard.png","mancard2.png","womancard2.png","outdoorcard.png","indoorcard2.png","e",62,"obj",1,"new",22,502,0,24.99178082,1
"MotER_502",3,"5","2","560","2","2","2","obj12T","1","jupitercard.png","mooncard.png","mancard2.png","womancard2.png","outdoorcard.png","indoorcard2.png","e",66,"obj",1,"new",23,502,0,24.99178082,1
"MotER_502",3,"7","2","553","2","2","2","obj12T","1","jupitercard.png","mooncard.png","mancard2.png","womancard2.png","outdoorcard.png","indoorcard2.png","e",68,"obj",1,"new",24,502,0,24.99178082,1
"MotER_502",3,"9","2","515","2","2","2","obj12F","0","jupitercard.png","mooncard.png","mancard2.png","womancard2.png","outdoorcard.png","indoorcard2.png","e",70,"obj",1,"new",25,502,0,24.99178082,1
"MotER_502",3,"15","2","526","2","2","2","obj12T","1","jupitercard.png","mooncard.png","mancard2.png","womancard2.png","outdoorcard.png","indoorcard2.png","e",76,"obj",1,"new",26,502,0,24.99178082,1
"MotER_502",3,"17","2","451","2","2","2","obj12T","1","jupitercard.png","mooncard.png","mancard2.png","womancard2.png","outdoorcard.png","indoorcard2.png","e",78,"obj",1,"new",27,502,0,24.99178082,1
"MotER_502",3,"21","2","540","2","2","2","obj12T","1","jupitercard.png","mooncard.png","mancard2.png","womancard2.png","outdoorcard.png","indoorcard2.png","e",82,"obj",1,"new",28,502,0,24.99178082,1
"MotER_502",3,"27","2","430","2","2","2","obj12F","0","jupitercard.png","mooncard.png","mancard2.png","womancard2.png","outdoorcard.png","indoorcard2.png","e",88,"obj",1,"new",29,502,0,24.99178082,1
"MotER_502",3,"28","2","381","2","2","2","obj12T","1","jupitercard.png","mooncard.png","mancard2.png","womancard2.png","outdoorcard.png","indoorcard2.png","e",89,"obj",1,"new",30,502,0,24.99178082,1
"MotER_502",4,"1","2","472","2","2","2","obj12T","1","jupitercard.png","mooncard.png","mancard2.png","womancard2.png","outdoorcard.png","indoorcard2.png","e",92,"obj",1,"new",31,502,0,24.99178082,1
"MotER_502",4,"2","2","798","2","2","2","obj12T","1","jupitercard.png","mooncard.png","mancard2.png","womancard2.png","outdoorcard.png","indoorcard2.png","e",93,"obj",1,"new",32,502,0,24.99178082,1
"MotER_502",4,"5","2","432","2","2","2","obj12T","1","jupitercard.png","mooncard.png","mancard2.png","womancard2.png","outdoorcard.png","indoorcard2.png","e",96,"obj",1,"new",33,502,0,24.99178082,1
"MotER_502",4,"6","2","526","2","2","2","obj12T","1","jupitercard.png","mooncard.png","mancard2.png","womancard2.png","outdoorcard.png","indoorcard2.png","e",97,"obj",1,"new",34,502,0,24.99178082,1
"MotER_502",4,"8","2","565","2","2","2","obj12T","1","jupitercard.png","mooncard.png","mancard2.png","womancard2.png","outdoorcard.png","indoorcard2.png","e",99,"obj",1,"new",35,502,0,24.99178082,1
"MotER_502",4,"11","2","827","2","2","2","obj12T","1","jupitercard.png","mooncard.png","mancard2.png","womancard2.png","outdoorcard.png","indoorcard2.png","e",102,"obj",1,"new",36,502,0,24.99178082,1
"MotER_502",4,"17","2","488","2","2","2","obj12F","0","jupitercard.png","mooncard.png","mancard2.png","womancard2.png","outdoorcard.png","indoorcard2.png","e",108,"obj",1,"new",37,502,0,24.99178082,1
"MotER_502",4,"23","2","520","2","2","2","obj12T","1","jupitercard.png","mooncard.png","mancard2.png","womancard2.png","outdoorcard.png","indoorcard2.png","e",114,"obj",1,"new",38,502,0,24.99178082,1
"MotER_502",4,"24","2","433","2","2","2","obj12F","0","jupitercard.png","mooncard.png","mancard2.png","womancard2.png","outdoorcard.png","indoorcard2.png","e",115,"obj",1,"new",39,502,0,24.99178082,1
"MotER_502",4,"29","2","486","2","2","2","obj12T","1","jupitercard.png","mooncard.png","mancard2.png","womancard2.png","outdoorcard.png","indoorcard2.png","e",120,"obj",1,"new",40,502,0,24.99178082,1
"MotER_502",5,"0","2","415","2","2","2","obj12T","1","jupitercard.png","mooncard.png","mancard2.png","womancard2.png","outdoorcard.png","indoorcard2.png","e",121,"obj",1,"new",41,502,0,24.99178082,1
"MotER_502",5,"1","2","532","2","2","2","obj12F","0","jupitercard.png","mooncard.png","mancard2.png","womancard2.png","outdoorcard.png","indoorcard2.png","e",122,"obj",1,"new",42,502,0,24.99178082,1
"MotER_502",5,"10","2","615","2","2","2","obj12T","1","jupitercard.png","mooncard.png","mancard2.png","womancard2.png","outdoorcard.png","indoorcard2.png","e",131,"obj",1,"new",43,502,0,24.99178082,1
"MotER_502",5,"11","2","456","2","2","2","obj12T","1","jupitercard.png","mooncard.png","mancard2.png","womancard2.png","outdoorcard.png","indoorcard2.png","e",132,"obj",1,"new",44,502,0,24.99178082,1
"MotER_502",5,"12","2","596","2","2","2","obj12F","0","jupitercard.png","mooncard.png","mancard2.png","womancard2.png","outdoorcard.png","indoorcard2.png","e",133,"obj",1,"new",45,502,0,24.99178082,1
"MotER_502",5,"16","2","386","2","2","2","obj12T","1","jupitercard.png","mooncard.png","mancard2.png","womancard2.png","outdoorcard.png","indoorcard2.png","e",137,"obj",1,"new",46,502,0,24.99178082,1
"MotER_502",5,"18","2","1538","2","2","2","obj12T","1","jupitercard.png","mooncard.png","mancard2.png","womancard2.png","outdoorcard.png","indoorcard2.png","e",139,"obj",1,"new",47,502,0,24.99178082,1
"MotER_502",5,"19","2","504","2","2","2","obj12T","1","jupitercard.png","mooncard.png","mancard2.png","womancard2.png","outdoorcard.png","indoorcard2.png","e",140,"obj",1,"new",48,502,0,24.99178082,1
"MotER_502",5,"25","2","594","2","2","2","obj12T","1","jupitercard.png","mooncard.png","mancard2.png","womancard2.png","outdoorcard.png","indoorcard2.png","e",146,"obj",1,"new",49,502,0,24.99178082,1
"MotER_502",5,"29","2","561","2","2","2","obj12T","1","jupitercard.png","mooncard.png","mancard2.png","womancard2.png","outdoorcard.png","indoorcard2.png","e",150,"obj",1,"new",50,502,0,24.99178082,1
"MotER_502",6,"4","2","2234","2","2","2","obj12T","1","jupitercard.png","mooncard.png","mancard2.png","womancard2.png","outdoorcard.png","indoorcard2.png","e",155,"obj",1,"new",51,502,0,24.99178082,1
"MotER_502",6,"10","2","524","2","2","2","obj12T","1","jupitercard.png","mooncard.png","mancard2.png","womancard2.png","outdoorcard.png","indoorcard2.png","e",161,"obj",1,"new",52,502,0,24.99178082,1
"MotER_502",6,"12","2","413","2","2","2","obj12T","1","jupitercard.png","mooncard.png","mancard2.png","womancard2.png","outdoorcard.png","indoorcard2.png","e",163,"obj",1,"new",53,502,0,24.99178082,1
"MotER_502",6,"14","2","374","2","2","2","obj12T","1","jupitercard.png","mooncard.png","mancard2.png","womancard2.png","outdoorcard.png","indoorcard2.png","e",165,"obj",1,"new",54,502,0,24.99178082,1
"MotER_502",6,"19","2","673","2","2","2","obj12F","0","jupitercard.png","mooncard.png","mancard2.png","womancard2.png","outdoorcard.png","indoorcard2.png","e",170,"obj",1,"new",55,502,0,24.99178082,1
"MotER_502",6,"21","2","458","2","2","2","obj12T","1","jupitercard.png","mooncard.png","mancard2.png","womancard2.png","outdoorcard.png","indoorcard2.png","e",172,"obj",1,"new",56,502,0,24.99178082,1
"MotER_502",6,"22","2","454","2","2","2","obj12T","1","jupitercard.png","mooncard.png","mancard2.png","womancard2.png","outdoorcard.png","indoorcard2.png","e",173,"obj",1,"new",57,502,0,24.99178082,1
"MotER_502",6,"24","2","245","2","2","2","obj12T","1","jupitercard.png","mooncard.png","mancard2.png","womancard2.png","outdoorcard.png","indoorcard2.png","e",175,"obj",1,"new",58,502,0,24.99178082,1
"MotER_502",6,"25","2","437","2","2","2","obj12F","0","jupitercard.png","mooncard.png","mancard2.png","womancard2.png","outdoorcard.png","indoorcard2.png","e",176,"obj",1,"new",59,502,0,24.99178082,1
"MotER_502",6,"29","2","496","2","2","2","obj12T","1","jupitercard.png","mooncard.png","mancard2.png","womancard2.png","outdoorcard.png","indoorcard2.png","e",180,"obj",1,"new",60,502,0,24.99178082,1
"MotER_502",1,"8","1","1356","2","2","2","scene12F","1","jupitercard.png","mooncard.png","mancard2.png","womancard2.png","outdoorcard.png","indoorcard2.png","e",9,"scene",0,"low",1,502,0,24.99178082,1
"MotER_502",1,"10","1","1097","2","2","2","scene12T","0","jupitercard.png","mooncard.png","mancard2.png","womancard2.png","outdoorcard.png","indoorcard2.png","e",11,"scene",0,"low",2,502,0,24.99178082,1
"MotER_502",1,"15","1","656","2","2","2","scene12T","0","jupitercard.png","mooncard.png","mancard2.png","womancard2.png","outdoorcard.png","indoorcard2.png","e",16,"scene",0,"low",3,502,0,24.99178082,1
"MotER_502",1,"16","2","674","2","2","2","scene12T","1","jupitercard.png","mooncard.png","mancard2.png","womancard2.png","outdoorcard.png","indoorcard2.png","e",17,"scene",1,"low",4,502,0,24.99178082,1
"MotER_502",1,"18","2","1285","2","2","2","scene12F","0","jupitercard.png","mooncard.png","mancard2.png","womancard2.png","outdoorcard.png","indoorcard2.png","e",19,"scene",1,"low",5,502,0,24.99178082,1
"MotER_502",1,"19","2","861","2","2","2","scene12T","1","jupitercard.png","mooncard.png","mancard2.png","womancard2.png","outdoorcard.png","indoorcard2.png","e",20,"scene",1,"low",6,502,0,24.99178082,1
"MotER_502",1,"22","2","1209","2","2","2","scene12T","1","jupitercard.png","mooncard.png","mancard2.png","womancard2.png","outdoorcard.png","indoorcard2.png","e",23,"scene",1,"low",7,502,0,24.99178082,1
"MotER_502",1,"24","2","1553","2","2","2","scene12F","0","jupitercard.png","mooncard.png","mancard2.png","womancard2.png","outdoorcard.png","indoorcard2.png","e",25,"scene",1,"low",8,502,0,24.99178082,1
"MotER_502",1,"26","2","750","2","2","2","scene12T","1","jupitercard.png","mooncard.png","mancard2.png","womancard2.png","outdoorcard.png","indoorcard2.png","e",27,"scene",1,"low",9,502,0,24.99178082,1
"MotER_502",1,"27","2","747","2","2","2","scene12T","1","jupitercard.png","mooncard.png","mancard2.png","womancard2.png","outdoorcard.png","indoorcard2.png","e",28,"scene",1,"low",10,502,0,24.99178082,1
"MotER_502",2,"0","2","635","2","2","2","scene12T","1","jupitercard.png","mooncard.png","mancard2.png","womancard2.png","outdoorcard.png","indoorcard2.png","e",31,"scene",1,"low",11,502,0,24.99178082,1
"MotER_502",2,"1","2","809","2","2","2","scene12F","0","jupitercard.png","mooncard.png","mancard2.png","womancard2.png","outdoorcard.png","indoorcard2.png","e",32,"scene",1,"low",12,502,0,24.99178082,1
"MotER_502",2,"7","2","783","2","2","2","scene12T","1","jupitercard.png","mooncard.png","mancard2.png","womancard2.png","outdoorcard.png","indoorcard2.png","e",38,"scene",1,"low",13,502,0,24.99178082,1
"MotER_502",2,"8","2","615","2","2","2","scene12F","0","jupitercard.png","mooncard.png","mancard2.png","womancard2.png","outdoorcard.png","indoorcard2.png","e",39,"scene",1,"low",14,502,0,24.99178082,1
"MotER_502",2,"9","2","573","2","2","2","scene12T","1","jupitercard.png","mooncard.png","mancard2.png","womancard2.png","outdoorcard.png","indoorcard2.png","e",40,"scene",1,"low",15,502,0,24.99178082,1
"MotER_502",2,"11","2","536","2","2","2","scene12T","1","jupitercard.png","mooncard.png","mancard2.png","womancard2.png","outdoorcard.png","indoorcard2.png","e",42,"scene",1,"low",16,502,0,24.99178082,1
