"subID","block","trial","response","rt","objrewardstim","facerewardstim","scenerewardstim","trialtype","feedback","obj1stim","obj2stim","face1stim","face2stim","scene1stim","scene2stim","RewardCat","choice","HH","HL","LH","LL","NH","NL","subid","Gender","ExactAge","AgeGroup"
"MotER_500","Test","5","1","3538","1","1","2","scene2scene1","None","jupitercard.png","mooncard.png","mancard2.png","womancard.png","outdoorcard.png","indoorcard.png","face","scene2","face1","face2","scene2","scene1","obj1","obj2",500,0,20.66575342,1
"MotER_500","Test","19","1","4346","1","1","2","obj1scene2","None","jupitercard.png","mooncard.png","mancard2.png","womancard.png","outdoorcard.png","indoorcard.png","face","obj1","face1","face2","scene2","scene1","obj1","obj2",500,0,20.66575342,1
"MotER_500","Test","12","1","1151","1","1","2","scene2face2","None","jupitercard.png","mooncard.png","mancard2.png","womancard.png","outdoorcard.png","indoorcard.png","face","scene2","face1","face2","scene2","scene1","obj1","obj2",500,0,20.66575342,1
"MotER_500","Test","11","1","2051","1","1","2","face1scene2","None","jupitercard.png","mooncard.png","mancard2.png","womancard.png","outdoorcard.png","indoorcard.png","face","face1","face1","face2","scene2","scene1","obj1","obj2",500,0,20.66575342,1
"MotER_500","Test","28","1","3349","1","1","2","obj2face2","None","jupitercard.png","mooncard.png","mancard2.png","womancard.png","outdoorcard.png","indoorcard.png","face","obj2","face1","face2","scene2","scene1","obj1","obj2",500,0,20.66575342,1
"MotER_500","Test","10","1","2523","1","1","2","scene2face1","None","jupitercard.png","mooncard.png","mancard2.png","womancard.png","outdoorcard.png","indoorcard.png","face","scene2","face1","face2","scene2","scene1","obj1","obj2",500,0,20.66575342,1
"MotER_500","Test","25","2","2513","1","1","2","face2obj1","None","jupitercard.png","mooncard.png","mancard2.png","womancard.png","outdoorcard.png","indoorcard.png","face","obj1","face1","face2","scene2","scene1","obj1","obj2",500,0,20.66575342,1
"MotER_500","Test","4","2","1369","1","1","2","scene1scene2","None","jupitercard.png","mooncard.png","mancard2.png","womancard.png","outdoorcard.png","indoorcard.png","face","scene2","face1","face2","scene2","scene1","obj1","obj2",500,0,20.66575342,1
"MotER_500","Test","1","2","1020","1","1","2","obj2obj1","None","jupitercard.png","mooncard.png","mancard2.png","womancard.png","outdoorcard.png","indoorcard.png","face","obj1","face1","face2","scene2","scene1","obj1","obj2",500,0,20.66575342,1
"MotER_500","Test","3","2","882","1","1","2","face2face1","None","jupitercard.png","mooncard.png","mancard2.png","womancard.png","outdoorcard.png","indoorcard.png","face","face1","face1","face2","scene2","scene1","obj1","obj2",500,0,20.66575342,1
"MotER_500","Test","17","1","5364","1","1","2","obj2scene1","None","jupitercard.png","mooncard.png","mancard2.png","womancard.png","outdoorcard.png","indoorcard.png","face","obj2","face1","face2","scene2","scene1","obj1","obj2",500,0,20.66575342,1
"MotER_500","Test","15","1","637","1","1","2","obj1scene1","None","jupitercard.png","mooncard.png","mancard2.png","womancard.png","outdoorcard.png","indoorcard.png","face","obj1","face1","face2","scene2","scene1","obj1","obj2",500,0,20.66575342,1
"MotER_500","Test","27","1","1108","1","1","2","face1obj2","None","jupitercard.png","mooncard.png","mancard2.png","womancard.png","outdoorcard.png","indoorcard.png","face","face1","face1","face2","scene2","scene1","obj1","obj2",500,0,20.66575342,1
"MotER_500","Test","23","2","1131","1","1","2","face1obj1","None","jupitercard.png","mooncard.png","mancard2.png","womancard.png","outdoorcard.png","indoorcard.png","face","obj1","face1","face2","scene2","scene1","obj1","obj2",500,0,20.66575342,1
"MotER_500","Test","8","2","1860","1","1","2","scene1face2","None","jupitercard.png","mooncard.png","mancard2.png","womancard.png","outdoorcard.png","indoorcard.png","face","face2","face1","face2","scene2","scene1","obj1","obj2",500,0,20.66575342,1
"MotER_500","Test","21","2","16014","1","1","2","obj2scene2","None","jupitercard.png","mooncard.png","mancard2.png","womancard.png","outdoorcard.png","indoorcard.png","face","scene2","face1","face2","scene2","scene1","obj1","obj2",500,0,20.66575342,1
"MotER_500","Test","14","2","1249","1","1","2","scene1obj1","None","jupitercard.png","mooncard.png","mancard2.png","womancard.png","outdoorcard.png","indoorcard.png","face","obj1","face1","face2","scene2","scene1","obj1","obj2",500,0,20.66575342,1
"MotER_500","Test","13","2","4024","1","1","2","face2scene2","None","jupitercard.png","mooncard.png","mancard2.png","womancard.png","outdoorcard.png","indoorcard.png","face","scene2","face1","face2","scene2","scene1","obj1","obj2",500,0,20.66575342,1
"MotER_500","Test","7","1","4868","1","1","2","face1scene1","None","jupitercard.png","mooncard.png","mancard2.png","womancard.png","outdoorcard.png","indoorcard.png","face","face1","face1","face2","scene2","scene1","obj1","obj2",500,0,20.66575342,1
"MotER_500","Test","16","1","3403","1","1","2","scene1obj2","None","jupitercard.png","mooncard.png","mancard2.png","womancard.png","outdoorcard.png","indoorcard.png","face","scene1","face1","face2","scene2","scene1","obj1","obj2",500,0,20.66575342,1
"MotER_500","Test","20","1","4741","1","1","2","scene2obj2","None","jupitercard.png","mooncard.png","mancard2.png","womancard.png","outdoorcard.png","indoorcard.png","face","scene2","face1","face2","scene2","scene1","obj1","obj2",500,0,20.66575342,1
"MotER_500","Test","26","2","1681","1","1","2","obj2face1","None","jupitercard.png","mooncard.png","mancard2.png","womancard.png","outdoorcard.png","indoorcard.png","face","face1","face1","face2","scene2","scene1","obj1","obj2",500,0,20.66575342,1
"MotER_500","Test","18","1","3691","1","1","2","scene2obj1","None","jupitercard.png","mooncard.png","mancard2.png","womancard.png","outdoorcard.png","indoorcard.png","face","scene2","face1","face2","scene2","scene1","obj1","obj2",500,0,20.66575342,1
"MotER_500","Test","9","1","9882","1","1","2","face2scene1","None","jupitercard.png","mooncard.png","mancard2.png","womancard.png","outdoorcard.png","indoorcard.png","face","face2","face1","face2","scene2","scene1","obj1","obj2",500,0,20.66575342,1
"MotER_500","Test","2","1","3426","1","1","2","face1face2","None","jupitercard.png","mooncard.png","mancard2.png","womancard.png","outdoorcard.png","indoorcard.png","face","face1","face1","face2","scene2","scene1","obj1","obj2",500,0,20.66575342,1
"MotER_500","Test","6","2","4500","1","1","2","scene1face1","None","jupitercard.png","mooncard.png","mancard2.png","womancard.png","outdoorcard.png","indoorcard.png","face","face1","face1","face2","scene2","scene1","obj1","obj2",500,0,20.66575342,1
"MotER_500","Test","0","1","1198","1","1","2","obj1obj2","None","jupitercard.png","mooncard.png","mancard2.png","womancard.png","outdoorcard.png","indoorcard.png","face","obj1","face1","face2","scene2","scene1","obj1","obj2",500,0,20.66575342,1
"MotER_500","Test","22","1","6548","1","1","2","obj1face1","None","jupitercard.png","mooncard.png","mancard2.png","womancard.png","outdoorcard.png","indoorcard.png","face","obj1","face1","face2","scene2","scene1","obj1","obj2",500,0,20.66575342,1
"MotER_500","Test","29","1","1566","1","1","2","face2obj2","None","jupitercard.png","mooncard.png","mancard2.png","womancard.png","outdoorcard.png","indoorcard.png","face","face2","face1","face2","scene2","scene1","obj1","obj2",500,0,20.66575342,1
"MotER_500","Test","24","1","1519","1","1","2","obj1face2","None","jupitercard.png","mooncard.png","mancard2.png","womancard.png","outdoorcard.png","indoorcard.png","face","obj1","face1","face2","scene2","scene1","obj1","obj2",500,0,20.66575342,1
"MotER_500","Test","5","1","1530","1","1","2","scene2scene1","None","jupitercard.png","mooncard.png","mancard2.png","womancard.png","outdoorcard.png","indoorcard.png","face","scene2","face1","face2","scene2","scene1","obj1","obj2",500,0,20.66575342,1
"MotER_500","Test","19","2","2040","1","1","2","obj1scene2","None","jupitercard.png","mooncard.png","mancard2.png","womancard.png","outdoorcard.png","indoorcard.png","face","scene2","face1","face2","scene2","scene1","obj1","obj2",500,0,20.66575342,1
"MotER_500","Test","12","1","7328","1","1","2","scene2face2","None","jupitercard.png","mooncard.png","mancard2.png","womancard.png","outdoorcard.png","indoorcard.png","face","scene2","face1","face2","scene2","scene1","obj1","obj2",500,0,20.66575342,1
"MotER_500","Test","11","2","2719","1","1","2","face1scene2","None","jupitercard.png","mooncard.png","mancard2.png","womancard.png","outdoorcard.png","indoorcard.png","face","scene2","face1","face2","scene2","scene1","obj1","obj2",500,0,20.66575342,1
"MotER_500","Test","28","2","9769","1","1","2","obj2face2","None","jupitercard.png","mooncard.png","mancard2.png","womancard.png","outdoorcard.png","indoorcard.png","face","face2","face1","face2","scene2","scene1","obj1","obj2",500,0,20.66575342,1
"MotER_500","Test","10","1","1858","1","1","2","scene2face1","None","jupitercard.png","mooncard.png","mancard2.png","womancard.png","outdoorcard.png","indoorcard.png","face","scene2","face1","face2","scene2","scene1","obj1","obj2",500,0,20.66575342,1
"MotER_500","Test","25","2","2436","1","1","2","face2obj1","None","jupitercard.png","mooncard.png","mancard2.png","womancard.png","outdoorcard.png","indoorcard.png","face","obj1","face1","face2","scene2","scene1","obj1","obj2",500,0,20.66575342,1
"MotER_500","Test","4","2","1163","1","1","2","scene1scene2","None","jupitercard.png","mooncard.png","mancard2.png","womancard.png","outdoorcard.png","indoorcard.png","face","scene2","face1","face2","scene2","scene1","obj1","obj2",500,0,20.66575342,1
"MotER_500","Test","1","2","1245","1","1","2","obj2obj1","None","jupitercard.png","mooncard.png","mancard2.png","womancard.png","outdoorcard.png","indoorcard.png","face","obj1","face1","face2","scene2","scene1","obj1","obj2",500,0,20.66575342,1
"MotER_500","Test","3","2","1017","1","1","2","face2face1","None","jupitercard.png","mooncard.png","mancard2.png","womancard.png","outdoorcard.png","indoorcard.png","face","face1","face1","face2","scene2","scene1","obj1","obj2",500,0,20.66575342,1
"MotER_500","Test","17","1","3755","1","1","2","obj2scene1","None","jupitercard.png","mooncard.png","mancard2.png","womancard.png","outdoorcard.png","indoorcard.png","face","obj2","face1","face2","scene2","scene1","obj1","obj2",500,0,20.66575342,1
"MotER_500","Test","15","1","996","1","1","2","obj1scene1","None","jupitercard.png","mooncard.png","mancard2.png","womancard.png","outdoorcard.png","indoorcard.png","face","obj1","face1","face2","scene2","scene1","obj1","obj2",500,0,20.66575342,1
"MotER_500","Test","27","1","963","1","1","2","face1obj2","None","jupitercard.png","mooncard.png","mancard2.png","womancard.png","outdoorcard.png","indoorcard.png","face","face1","face1","face2","scene2","scene1","obj1","obj2",500,0,20.66575342,1
"MotER_500","Test","23","2","1700","1","1","2","face1obj1","None","jupitercard.png","mooncard.png","mancard2.png","womancard.png","outdoorcard.png","indoorcard.png","face","obj1","face1","face2","scene2","scene1","obj1","obj2",500,0,20.66575342,1
"MotER_500","Test","8","2","1911","1","1","2","scene1face2","None","jupitercard.png","mooncard.png","mancard2.png","womancard.png","outdoorcard.png","indoorcard.png","face","face2","face1","face2","scene2","scene1","obj1","obj2",500,0,20.66575342,1
"MotER_500","Test","21","2","1654","1","1","2","obj2scene2","None","jupitercard.png","mooncard.png","mancard2.png","womancard.png","outdoorcard.png","indoorcard.png","face","scene2","face1","face2","scene2","scene1","obj1","obj2",500,0,20.66575342,1
"MotER_500","Test","14","2","1232","1","1","2","scene1obj1","None","jupitercard.png","mooncard.png","mancard2.png","womancard.png","outdoorcard.png","indoorcard.png","face","obj1","face1","face2","scene2","scene1","obj1","obj2",500,0,20.66575342,1
"MotER_500","Test","13","2","2638","1","1","2","face2scene2","None","jupitercard.png","mooncard.png","mancard2.png","womancard.png","outdoorcard.png","indoorcard.png","face","scene2","face1","face2","scene2","scene1","obj1","obj2",500,0,20.66575342,1
"MotER_500","Test","7","1","1215","1","1","2","face1scene1","None","jupitercard.png","mooncard.png","mancard2.png","womancard.png","outdoorcard.png","indoorcard.png","face","face1","face1","face2","scene2","scene1","obj1","obj2",500,0,20.66575342,1
"MotER_500","Test","16","2","2737","1","1","2","scene1obj2","None","jupitercard.png","mooncard.png","mancard2.png","womancard.png","outdoorcard.png","indoorcard.png","face","obj2","face1","face2","scene2","scene1","obj1","obj2",500,0,20.66575342,1
"MotER_500","Test","20","1","2008","1","1","2","scene2obj2","None","jupitercard.png","mooncard.png","mancard2.png","womancard.png","outdoorcard.png","indoorcard.png","face","scene2","face1","face2","scene2","scene1","obj1","obj2",500,0,20.66575342,1
"MotER_500","Test","26","2","1283","1","1","2","obj2face1","None","jupitercard.png","mooncard.png","mancard2.png","womancard.png","outdoorcard.png","indoorcard.png","face","face1","face1","face2","scene2","scene1","obj1","obj2",500,0,20.66575342,1
"MotER_500","Test","18","1","2201","1","1","2","scene2obj1","None","jupitercard.png","mooncard.png","mancard2.png","womancard.png","outdoorcard.png","indoorcard.png","face","scene2","face1","face2","scene2","scene1","obj1","obj2",500,0,20.66575342,1
"MotER_500","Test","9","1","10341","1","1","2","face2scene1","None","jupitercard.png","mooncard.png","mancard2.png","womancard.png","outdoorcard.png","indoorcard.png","face","face2","face1","face2","scene2","scene1","obj1","obj2",500,0,20.66575342,1
"MotER_500","Test","2","1","1271","1","1","2","face1face2","None","jupitercard.png","mooncard.png","mancard2.png","womancard.png","outdoorcard.png","indoorcard.png","face","face1","face1","face2","scene2","scene1","obj1","obj2",500,0,20.66575342,1
"MotER_500","Test","6","2","1078","1","1","2","scene1face1","None","jupitercard.png","mooncard.png","mancard2.png","womancard.png","outdoorcard.png","indoorcard.png","face","face1","face1","face2","scene2","scene1","obj1","obj2",500,0,20.66575342,1
"MotER_500","Test","0","1","760","1","1","2","obj1obj2","None","jupitercard.png","mooncard.png","mancard2.png","womancard.png","outdoorcard.png","indoorcard.png","face","obj1","face1","face2","scene2","scene1","obj1","obj2",500,0,20.66575342,1
"MotER_500","Test","22","1","562","1","1","2","obj1face1","None","jupitercard.png","mooncard.png","mancard2.png","womancard.png","outdoorcard.png","indoorcard.png","face","obj1","face1","face2","scene2","scene1","obj1","obj2",500,0,20.66575342,1
"MotER_500","Test","29","1","1797","1","1","2","face2obj2","None","jupitercard.png","mooncard.png","mancard2.png","womancard.png","outdoorcard.png","indoorcard.png","face","face2","face1","face2","scene2","scene1","obj1","obj2",500,0,20.66575342,1
"MotER_500","Test","24","1","1120","1","1","2","obj1face2","None","jupitercard.png","mooncard.png","mancard2.png","womancard.png","outdoorcard.png","indoorcard.png","face","obj1","face1","face2","scene2","scene1","obj1","obj2",500,0,20.66575342,1
"MotER_500","Test","5","1","946","1","1","2","scene2scene1","None","jupitercard.png","mooncard.png","mancard2.png","womancard.png","outdoorcard.png","indoorcard.png","face","scene2","face1","face2","scene2","scene1","obj1","obj2",500,0,20.66575342,1
"MotER_500","Test","19","2","1318","1","1","2","obj1scene2","None","jupitercard.png","mooncard.png","mancard2.png","womancard.png","outdoorcard.png","indoorcard.png","face","scene2","face1","face2","scene2","scene1","obj1","obj2",500,0,20.66575342,1
"MotER_500","Test","12","1","731","1","1","2","scene2face2","None","jupitercard.png","mooncard.png","mancard2.png","womancard.png","outdoorcard.png","indoorcard.png","face","scene2","face1","face2","scene2","scene1","obj1","obj2",500,0,20.66575342,1
"MotER_500","Test","11","2","1631","1","1","2","face1scene2","None","jupitercard.png","mooncard.png","mancard2.png","womancard.png","outdoorcard.png","indoorcard.png","face","scene2","face1","face2","scene2","scene1","obj1","obj2",500,0,20.66575342,1
"MotER_500","Test","28","2","1837","1","1","2","obj2face2","None","jupitercard.png","mooncard.png","mancard2.png","womancard.png","outdoorcard.png","indoorcard.png","face","face2","face1","face2","scene2","scene1","obj1","obj2",500,0,20.66575342,1
"MotER_500","Test","10","1","842","1","1","2","scene2face1","None","jupitercard.png","mooncard.png","mancard2.png","womancard.png","outdoorcard.png","indoorcard.png","face","scene2","face1","face2","scene2","scene1","obj1","obj2",500,0,20.66575342,1
"MotER_500","Test","25","2","901","1","1","2","face2obj1","None","jupitercard.png","mooncard.png","mancard2.png","womancard.png","outdoorcard.png","indoorcard.png","face","obj1","face1","face2","scene2","scene1","obj1","obj2",500,0,20.66575342,1
"MotER_500","Test","4","2","758","1","1","2","scene1scene2","None","jupitercard.png","mooncard.png","mancard2.png","womancard.png","outdoorcard.png","indoorcard.png","face","scene2","face1","face2","scene2","scene1","obj1","obj2",500,0,20.66575342,1
"MotER_500","Test","1","2","787","1","1","2","obj2obj1","None","jupitercard.png","mooncard.png","mancard2.png","womancard.png","outdoorcard.png","indoorcard.png","face","obj1","face1","face2","scene2","scene1","obj1","obj2",500,0,20.66575342,1
"MotER_500","Test","3","2","908","1","1","2","face2face1","None","jupitercard.png","mooncard.png","mancard2.png","womancard.png","outdoorcard.png","indoorcard.png","face","face1","face1","face2","scene2","scene1","obj1","obj2",500,0,20.66575342,1
"MotER_500","Test","17","1","25276","1","1","2","obj2scene1","None","jupitercard.png","mooncard.png","mancard2.png","womancard.png","outdoorcard.png","indoorcard.png","face","obj2","face1","face2","scene2","scene1","obj1","obj2",500,0,20.66575342,1
"MotER_500","Test","15","1","863","1","1","2","obj1scene1","None","jupitercard.png","mooncard.png","mancard2.png","womancard.png","outdoorcard.png","indoorcard.png","face","obj1","face1","face2","scene2","scene1","obj1","obj2",500,0,20.66575342,1
"MotER_500","Test","27","1","883","1","1","2","face1obj2","None","jupitercard.png","mooncard.png","mancard2.png","womancard.png","outdoorcard.png","indoorcard.png","face","face1","face1","face2","scene2","scene1","obj1","obj2",500,0,20.66575342,1
"MotER_500","Test","23","1","669","1","1","2","face1obj1","None","jupitercard.png","mooncard.png","mancard2.png","womancard.png","outdoorcard.png","indoorcard.png","face","face1","face1","face2","scene2","scene1","obj1","obj2",500,0,20.66575342,1
"MotER_500","Test","8","2","2874","1","1","2","scene1face2","None","jupitercard.png","mooncard.png","mancard2.png","womancard.png","outdoorcard.png","indoorcard.png","face","face2","face1","face2","scene2","scene1","obj1","obj2",500,0,20.66575342,1
"MotER_500","Test","21","2","3313","1","1","2","obj2scene2","None","jupitercard.png","mooncard.png","mancard2.png","womancard.png","outdoorcard.png","indoorcard.png","face","scene2","face1","face2","scene2","scene1","obj1","obj2",500,0,20.66575342,1
"MotER_500","Test","14","2","1425","1","1","2","scene1obj1","None","jupitercard.png","mooncard.png","mancard2.png","womancard.png","outdoorcard.png","indoorcard.png","face","obj1","face1","face2","scene2","scene1","obj1","obj2",500,0,20.66575342,1
"MotER_500","Test","13","2","1648","1","1","2","face2scene2","None","jupitercard.png","mooncard.png","mancard2.png","womancard.png","outdoorcard.png","indoorcard.png","face","scene2","face1","face2","scene2","scene1","obj1","obj2",500,0,20.66575342,1
"MotER_500","Test","7","1","1339","1","1","2","face1scene1","None","jupitercard.png","mooncard.png","mancard2.png","womancard.png","outdoorcard.png","indoorcard.png","face","face1","face1","face2","scene2","scene1","obj1","obj2",500,0,20.66575342,1
"MotER_500","Test","16","2","3462","1","1","2","scene1obj2","None","jupitercard.png","mooncard.png","mancard2.png","womancard.png","outdoorcard.png","indoorcard.png","face","obj2","face1","face2","scene2","scene1","obj1","obj2",500,0,20.66575342,1
"MotER_500","Test","20","1","764","1","1","2","scene2obj2","None","jupitercard.png","mooncard.png","mancard2.png","womancard.png","outdoorcard.png","indoorcard.png","face","scene2","face1","face2","scene2","scene1","obj1","obj2",500,0,20.66575342,1
"MotER_500","Test","26","2","9539","1","1","2","obj2face1","None","jupitercard.png","mooncard.png","mancard2.png","womancard.png","outdoorcard.png","indoorcard.png","face","face1","face1","face2","scene2","scene1","obj1","obj2",500,0,20.66575342,1
"MotER_500","Test","18","1","822","1","1","2","scene2obj1","None","jupitercard.png","mooncard.png","mancard2.png","womancard.png","outdoorcard.png","indoorcard.png","face","scene2","face1","face2","scene2","scene1","obj1","obj2",500,0,20.66575342,1
"MotER_500","Test","9","1","4161","1","1","2","face2scene1","None","jupitercard.png","mooncard.png","mancard2.png","womancard.png","outdoorcard.png","indoorcard.png","face","face2","face1","face2","scene2","scene1","obj1","obj2",500,0,20.66575342,1
"MotER_500","Test","2","1","725","1","1","2","face1face2","None","jupitercard.png","mooncard.png","mancard2.png","womancard.png","outdoorcard.png","indoorcard.png","face","face1","face1","face2","scene2","scene1","obj1","obj2",500,0,20.66575342,1
"MotER_500","Test","6","2","967","1","1","2","scene1face1","None","jupitercard.png","mooncard.png","mancard2.png","womancard.png","outdoorcard.png","indoorcard.png","face","face1","face1","face2","scene2","scene1","obj1","obj2",500,0,20.66575342,1
"MotER_500","Test","0","1","577","1","1","2","obj1obj2","None","jupitercard.png","mooncard.png","mancard2.png","womancard.png","outdoorcard.png","indoorcard.png","face","obj1","face1","face2","scene2","scene1","obj1","obj2",500,0,20.66575342,1
"MotER_500","Test","22","1","1248","1","1","2","obj1face1","None","jupitercard.png","mooncard.png","mancard2.png","womancard.png","outdoorcard.png","indoorcard.png","face","obj1","face1","face2","scene2","scene1","obj1","obj2",500,0,20.66575342,1
"MotER_500","Test","29","1","2097","1","1","2","face2obj2","None","jupitercard.png","mooncard.png","mancard2.png","womancard.png","outdoorcard.png","indoorcard.png","face","face2","face1","face2","scene2","scene1","obj1","obj2",500,0,20.66575342,1
"MotER_500","Test","24","1","1280","1","1","2","obj1face2","None","jupitercard.png","mooncard.png","mancard2.png","womancard.png","outdoorcard.png","indoorcard.png","face","obj1","face1","face2","scene2","scene1","obj1","obj2",500,0,20.66575342,1
"MotER_501","Test","11","2","4144","1","2","1","face1scene2","None","mooncard.png","jupitercard.png","womancard2.png","mancard.png","indoorcard2.png","outdoorcard2.png","scene","scene2","scene1","scene2","face2","face1","obj1","obj2",501,1,21.43561644,1
"MotER_501","Test","29","1","2292","1","2","1","face2obj2","None","mooncard.png","jupitercard.png","womancard2.png","mancard.png","indoorcard2.png","outdoorcard2.png","scene","face2","scene1","scene2","face2","face1","obj1","obj2",501,1,21.43561644,1
"MotER_501","Test","14","1","2959","1","2","1","scene1obj1","None","mooncard.png","jupitercard.png","womancard2.png","mancard.png","indoorcard2.png","outdoorcard2.png","scene","scene1","scene1","scene2","face2","face1","obj1","obj2",501,1,21.43561644,1
"MotER_501","Test","25","2","1402","1","2","1","face2obj1","None","mooncard.png","jupitercard.png","womancard2.png","mancard.png","indoorcard2.png","outdoorcard2.png","scene","obj1","scene1","scene2","face2","face1","obj1","obj2",501,1,21.43561644,1
"MotER_501","Test","8","2","945","1","2","1","scene1face2","None","mooncard.png","jupitercard.png","womancard2.png","mancard.png","indoorcard2.png","outdoorcard2.png","scene","face2","scene1","scene2","face2","face1","obj1","obj2",501,1,21.43561644,1
"MotER_501","Test","22","1","1193","1","2","1","obj1face1","None","mooncard.png","jupitercard.png","womancard2.png","mancard.png","indoorcard2.png","outdoorcard2.png","scene","obj1","scene1","scene2","face2","face1","obj1","obj2",501,1,21.43561644,1
"MotER_501","Test","18","2","1011","1","2","1","scene2obj1","None","mooncard.png","jupitercard.png","womancard2.png","mancard.png","indoorcard2.png","outdoorcard2.png","scene","obj1","scene1","scene2","face2","face1","obj1","obj2",501,1,21.43561644,1
"MotER_501","Test","5","2","1012","1","2","1","scene2scene1","None","mooncard.png","jupitercard.png","womancard2.png","mancard.png","indoorcard2.png","outdoorcard2.png","scene","scene1","scene1","scene2","face2","face1","obj1","obj2",501,1,21.43561644,1
"MotER_501","Test","26","2","703","1","2","1","obj2face1","None","mooncard.png","jupitercard.png","womancard2.png","mancard.png","indoorcard2.png","outdoorcard2.png","scene","face1","scene1","scene2","face2","face1","obj1","obj2",501,1,21.43561644,1
"MotER_501","Test","19","1","3815","1","2","1","obj1scene2","None","mooncard.png","jupitercard.png","womancard2.png","mancard.png","indoorcard2.png","outdoorcard2.png","scene","obj1","scene1","scene2","face2","face1","obj1","obj2",501,1,21.43561644,1
"MotER_501","Test","4","2","3688","1","2","1","scene1scene2","None","mooncard.png","jupitercard.png","womancard2.png","mancard.png","indoorcard2.png","outdoorcard2.png","scene","scene2","scene1","scene2","face2","face1","obj1","obj2",501,1,21.43561644,1
"MotER_501","Test","3","1","1189","1","2","1","face2face1","None","mooncard.png","jupitercard.png","womancard2.png","mancard.png","indoorcard2.png","outdoorcard2.png","scene","face2","scene1","scene2","face2","face1","obj1","obj2",501,1,21.43561644,1
"MotER_501","Test","2","2","1466","1","2","1","face1face2","None","mooncard.png","jupitercard.png","womancard2.png","mancard.png","indoorcard2.png","outdoorcard2.png","scene","face2","scene1","scene2","face2","face1","obj1","obj2",501,1,21.43561644,1
"MotER_501","Test","23","2","992","1","2","1","face1obj1","None","mooncard.png","jupitercard.png","womancard2.png","mancard.png","indoorcard2.png","outdoorcard2.png","scene","obj1","scene1","scene2","face2","face1","obj1","obj2",501,1,21.43561644,1
"MotER_501","Test","16","1","2286","1","2","1","scene1obj2","None","mooncard.png","jupitercard.png","womancard2.png","mancard.png","indoorcard2.png","outdoorcard2.png","scene","scene1","scene1","scene2","face2","face1","obj1","obj2",501,1,21.43561644,1
"MotER_501","Test","24","1","2915","1","2","1","obj1face2","None","mooncard.png","jupitercard.png","womancard2.png","mancard.png","indoorcard2.png","outdoorcard2.png","scene","obj1","scene1","scene2","face2","face1","obj1","obj2",501,1,21.43561644,1
"MotER_501","Test","9","2","1022","1","2","1","face2scene1","None","mooncard.png","jupitercard.png","womancard2.png","mancard.png","indoorcard2.png","outdoorcard2.png","scene","scene1","scene1","scene2","face2","face1","obj1","obj2",501,1,21.43561644,1
"MotER_501","Test","1","2","646","1","2","1","obj2obj1","None","mooncard.png","jupitercard.png","womancard2.png","mancard.png","indoorcard2.png","outdoorcard2.png","scene","obj1","scene1","scene2","face2","face1","obj1","obj2",501,1,21.43561644,1
"MotER_501","Test","20","1","1541","1","2","1","scene2obj2","None","mooncard.png","jupitercard.png","womancard2.png","mancard.png","indoorcard2.png","outdoorcard2.png","scene","scene2","scene1","scene2","face2","face1","obj1","obj2",501,1,21.43561644,1
"MotER_501","Test","10","1","1315","1","2","1","scene2face1","None","mooncard.png","jupitercard.png","womancard2.png","mancard.png","indoorcard2.png","outdoorcard2.png","scene","scene2","scene1","scene2","face2","face1","obj1","obj2",501,1,21.43561644,1
"MotER_501","Test","6","1","1870","1","2","1","scene1face1","None","mooncard.png","jupitercard.png","womancard2.png","mancard.png","indoorcard2.png","outdoorcard2.png","scene","scene1","scene1","scene2","face2","face1","obj1","obj2",501,1,21.43561644,1
"MotER_501","Test","7","2","1099","1","2","1","face1scene1","None","mooncard.png","jupitercard.png","womancard2.png","mancard.png","indoorcard2.png","outdoorcard2.png","scene","scene1","scene1","scene2","face2","face1","obj1","obj2",501,1,21.43561644,1
"MotER_501","Test","21","2","1198","1","2","1","obj2scene2","None","mooncard.png","jupitercard.png","womancard2.png","mancard.png","indoorcard2.png","outdoorcard2.png","scene","scene2","scene1","scene2","face2","face1","obj1","obj2",501,1,21.43561644,1
"MotER_501","Test","17","2","590","1","2","1","obj2scene1","None","mooncard.png","jupitercard.png","womancard2.png","mancard.png","indoorcard2.png","outdoorcard2.png","scene","scene1","scene1","scene2","face2","face1","obj1","obj2",501,1,21.43561644,1
"MotER_501","Test","12","2","1109","1","2","1","scene2face2","None","mooncard.png","jupitercard.png","womancard2.png","mancard.png","indoorcard2.png","outdoorcard2.png","scene","face2","scene1","scene2","face2","face1","obj1","obj2",501,1,21.43561644,1
"MotER_501","Test","28","2","601","1","2","1","obj2face2","None","mooncard.png","jupitercard.png","womancard2.png","mancard.png","indoorcard2.png","outdoorcard2.png","scene","face2","scene1","scene2","face2","face1","obj1","obj2",501,1,21.43561644,1
"MotER_501","Test","13","1","647","1","2","1","face2scene2","None","mooncard.png","jupitercard.png","womancard2.png","mancard.png","indoorcard2.png","outdoorcard2.png","scene","face2","scene1","scene2","face2","face1","obj1","obj2",501,1,21.43561644,1
"MotER_501","Test","27","2","3508","1","2","1","face1obj2","None","mooncard.png","jupitercard.png","womancard2.png","mancard.png","indoorcard2.png","outdoorcard2.png","scene","obj2","scene1","scene2","face2","face1","obj1","obj2",501,1,21.43561644,1
"MotER_501","Test","0","1","835","1","2","1","obj1obj2","None","mooncard.png","jupitercard.png","womancard2.png","mancard.png","indoorcard2.png","outdoorcard2.png","scene","obj1","scene1","scene2","face2","face1","obj1","obj2",501,1,21.43561644,1
"MotER_501","Test","15","1","2053","1","2","1","obj1scene1","None","mooncard.png","jupitercard.png","womancard2.png","mancard.png","indoorcard2.png","outdoorcard2.png","scene","obj1","scene1","scene2","face2","face1","obj1","obj2",501,1,21.43561644,1
"MotER_501","Test","11","1","1385","1","2","1","face1scene2","None","mooncard.png","jupitercard.png","womancard2.png","mancard.png","indoorcard2.png","outdoorcard2.png","scene","face1","scene1","scene2","face2","face1","obj1","obj2",501,1,21.43561644,1
"MotER_501","Test","29","1","715","1","2","1","face2obj2","None","mooncard.png","jupitercard.png","womancard2.png","mancard.png","indoorcard2.png","outdoorcard2.png","scene","face2","scene1","scene2","face2","face1","obj1","obj2",501,1,21.43561644,1
"MotER_501","Test","14","2","1864","1","2","1","scene1obj1","None","mooncard.png","jupitercard.png","womancard2.png","mancard.png","indoorcard2.png","outdoorcard2.png","scene","obj1","scene1","scene2","face2","face1","obj1","obj2",501,1,21.43561644,1
"MotER_501","Test","25","2","1017","1","2","1","face2obj1","None","mooncard.png","jupitercard.png","womancard2.png","mancard.png","indoorcard2.png","outdoorcard2.png","scene","obj1","scene1","scene2","face2","face1","obj1","obj2",501,1,21.43561644,1
"MotER_501","Test","8","1","2186","1","2","1","scene1face2","None","mooncard.png","jupitercard.png","womancard2.png","mancard.png","indoorcard2.png","outdoorcard2.png","scene","scene1","scene1","scene2","face2","face1","obj1","obj2",501,1,21.43561644,1
"MotER_501","Test","22","1","952","1","2","1","obj1face1","None","mooncard.png","jupitercard.png","womancard2.png","mancard.png","indoorcard2.png","outdoorcard2.png","scene","obj1","scene1","scene2","face2","face1","obj1","obj2",501,1,21.43561644,1
"MotER_501","Test","18","2","880","1","2","1","scene2obj1","None","mooncard.png","jupitercard.png","womancard2.png","mancard.png","indoorcard2.png","outdoorcard2.png","scene","obj1","scene1","scene2","face2","face1","obj1","obj2",501,1,21.43561644,1
"MotER_501","Test","5","2","1262","1","2","1","scene2scene1","None","mooncard.png","jupitercard.png","womancard2.png","mancard.png","indoorcard2.png","outdoorcard2.png","scene","scene1","scene1","scene2","face2","face1","obj1","obj2",501,1,21.43561644,1
"MotER_501","Test","26","2","1219","1","2","1","obj2face1","None","mooncard.png","jupitercard.png","womancard2.png","mancard.png","indoorcard2.png","outdoorcard2.png","scene","face1","scene1","scene2","face2","face1","obj1","obj2",501,1,21.43561644,1
"MotER_501","Test","19","1","1041","1","2","1","obj1scene2","None","mooncard.png","jupitercard.png","womancard2.png","mancard.png","indoorcard2.png","outdoorcard2.png","scene","obj1","scene1","scene2","face2","face1","obj1","obj2",501,1,21.43561644,1
"MotER_501","Test","4","1","2083","1","2","1","scene1scene2","None","mooncard.png","jupitercard.png","womancard2.png","mancard.png","indoorcard2.png","outdoorcard2.png","scene","scene1","scene1","scene2","face2","face1","obj1","obj2",501,1,21.43561644,1
"MotER_501","Test","3","1","1026","1","2","1","face2face1","None","mooncard.png","jupitercard.png","womancard2.png","mancard.png","indoorcard2.png","outdoorcard2.png","scene","face2","scene1","scene2","face2","face1","obj1","obj2",501,1,21.43561644,1
"MotER_501","Test","2","2","680","1","2","1","face1face2","None","mooncard.png","jupitercard.png","womancard2.png","mancard.png","indoorcard2.png","outdoorcard2.png","scene","face2","scene1","scene2","face2","face1","obj1","obj2",501,1,21.43561644,1
"MotER_501","Test","23","2","837","1","2","1","face1obj1","None","mooncard.png","jupitercard.png","womancard2.png","mancard.png","indoorcard2.png","outdoorcard2.png","scene","obj1","scene1","scene2","face2","face1","obj1","obj2",501,1,21.43561644,1
"MotER_501","Test","16","1","676","1","2","1","scene1obj2","None","mooncard.png","jupitercard.png","womancard2.png","mancard.png","indoorcard2.png","outdoorcard2.png","scene","scene1","scene1","scene2","face2","face1","obj1","obj2",501,1,21.43561644,1
"MotER_501","Test","24","1","530","1","2","1","obj1face2","None","mooncard.png","jupitercard.png","womancard2.png","mancard.png","indoorcard2.png","outdoorcard2.png","scene","obj1","scene1","scene2","face2","face1","obj1","obj2",501,1,21.43561644,1
"MotER_501","Test","9","2","778","1","2","1","face2scene1","None","mooncard.png","jupitercard.png","womancard2.png","mancard.png","indoorcard2.png","outdoorcard2.png","scene","scene1","scene1","scene2","face2","face1","obj1","obj2",501,1,21.43561644,1
"MotER_501","Test","1","2","481","1","2","1","obj2obj1","None","mooncard.png","jupitercard.png","womancard2.png","mancard.png","indoorcard2.png","outdoorcard2.png","scene","obj1","scene1","scene2","face2","face1","obj1","obj2",501,1,21.43561644,1
"MotER_501","Test","20","1","869","1","2","1","scene2obj2","None","mooncard.png","jupitercard.png","womancard2.png","mancard.png","indoorcard2.png","outdoorcard2.png","scene","scene2","scene1","scene2","face2","face1","obj1","obj2",501,1,21.43561644,1
"MotER_501","Test","10","2","1047","1","2","1","scene2face1","None","mooncard.png","jupitercard.png","womancard2.png","mancard.png","indoorcard2.png","outdoorcard2.png","scene","face1","scene1","scene2","face2","face1","obj1","obj2",501,1,21.43561644,1
"MotER_501","Test","6","1","1319","1","2","1","scene1face1","None","mooncard.png","jupitercard.png","womancard2.png","mancard.png","indoorcard2.png","outdoorcard2.png","scene","scene1","scene1","scene2","face2","face1","obj1","obj2",501,1,21.43561644,1
"MotER_501","Test","7","2","488","1","2","1","face1scene1","None","mooncard.png","jupitercard.png","womancard2.png","mancard.png","indoorcard2.png","outdoorcard2.png","scene","scene1","scene1","scene2","face2","face1","obj1","obj2",501,1,21.43561644,1
"MotER_501","Test","21","1","1021","1","2","1","obj2scene2","None","mooncard.png","jupitercard.png","womancard2.png","mancard.png","indoorcard2.png","outdoorcard2.png","scene","obj2","scene1","scene2","face2","face1","obj1","obj2",501,1,21.43561644,1
"MotER_501","Test","17","2","830","1","2","1","obj2scene1","None","mooncard.png","jupitercard.png","womancard2.png","mancard.png","indoorcard2.png","outdoorcard2.png","scene","scene1","scene1","scene2","face2","face1","obj1","obj2",501,1,21.43561644,1
"MotER_501","Test","12","2","1016","1","2","1","scene2face2","None","mooncard.png","jupitercard.png","womancard2.png","mancard.png","indoorcard2.png","outdoorcard2.png","scene","face2","scene1","scene2","face2","face1","obj1","obj2",501,1,21.43561644,1
"MotER_501","Test","28","2","828","1","2","1","obj2face2","None","mooncard.png","jupitercard.png","womancard2.png","mancard.png","indoorcard2.png","outdoorcard2.png","scene","face2","scene1","scene2","face2","face1","obj1","obj2",501,1,21.43561644,1
"MotER_501","Test","13","1","667","1","2","1","face2scene2","None","mooncard.png","jupitercard.png","womancard2.png","mancard.png","indoorcard2.png","outdoorcard2.png","scene","face2","scene1","scene2","face2","face1","obj1","obj2",501,1,21.43561644,1
"MotER_501","Test","27","1","505","1","2","1","face1obj2","None","mooncard.png","jupitercard.png","womancard2.png","mancard.png","indoorcard2.png","outdoorcard2.png","scene","face1","scene1","scene2","face2","face1","obj1","obj2",501,1,21.43561644,1
"MotER_501","Test","0","1","592","1","2","1","obj1obj2","None","mooncard.png","jupitercard.png","womancard2.png","mancard.png","indoorcard2.png","outdoorcard2.png","scene","obj1","scene1","scene2","face2","face1","obj1","obj2",501,1,21.43561644,1
"MotER_501","Test","15","1","433","1","2","1","obj1scene1","None","mooncard.png","jupitercard.png","womancard2.png","mancard.png","indoorcard2.png","outdoorcard2.png","scene","obj1","scene1","scene2","face2","face1","obj1","obj2",501,1,21.43561644,1
"MotER_501","Test","11","1","1000","1","2","1","face1scene2","None","mooncard.png","jupitercard.png","womancard2.png","mancard.png","indoorcard2.png","outdoorcard2.png","scene","face1","scene1","scene2","face2","face1","obj1","obj2",501,1,21.43561644,1
"MotER_501","Test","29","1","673","1","2","1","face2obj2","None","mooncard.png","jupitercard.png","womancard2.png","mancard.png","indoorcard2.png","outdoorcard2.png","scene","face2","scene1","scene2","face2","face1","obj1","obj2",501,1,21.43561644,1
"MotER_501","Test","14","2","629","1","2","1","scene1obj1","None","mooncard.png","jupitercard.png","womancard2.png","mancard.png","indoorcard2.png","outdoorcard2.png","scene","obj1","scene1","scene2","face2","face1","obj1","obj2",501,1,21.43561644,1
"MotER_501","Test","25","2","690","1","2","1","face2obj1","None","mooncard.png","jupitercard.png","womancard2.png","mancard.png","indoorcard2.png","outdoorcard2.png","scene","obj1","scene1","scene2","face2","face1","obj1","obj2",501,1,21.43561644,1
"MotER_501","Test","8","1","755","1","2","1","scene1face2","None","mooncard.png","jupitercard.png","womancard2.png","mancard.png","indoorcard2.png","outdoorcard2.png","scene","scene1","scene1","scene2","face2","face1","obj1","obj2",501,1,21.43561644,1
"MotER_501","Test","22","1","749","1","2","1","obj1face1","None","mooncard.png","jupitercard.png","womancard2.png","mancard.png","indoorcard2.png","outdoorcard2.png","scene","obj1","scene1","scene2","face2","face1","obj1","obj2",501,1,21.43561644,1
"MotER_501","Test","18","2","556","1","2","1","scene2obj1","None","mooncard.png","jupitercard.png","womancard2.png","mancard.png","indoorcard2.png","outdoorcard2.png","scene","obj1","scene1","scene2","face2","face1","obj1","obj2",501,1,21.43561644,1
"MotER_501","Test","5","2","904","1","2","1","scene2scene1","None","mooncard.png","jupitercard.png","womancard2.png","mancard.png","indoorcard2.png","outdoorcard2.png","scene","scene1","scene1","scene2","face2","face1","obj1","obj2",501,1,21.43561644,1
"MotER_501","Test","26","2","2221","1","2","1","obj2face1","None","mooncard.png","jupitercard.png","womancard2.png","mancard.png","indoorcard2.png","outdoorcard2.png","scene","face1","scene1","scene2","face2","face1","obj1","obj2",501,1,21.43561644,1
"MotER_501","Test","19","1","721","1","2","1","obj1scene2","None","mooncard.png","jupitercard.png","womancard2.png","mancard.png","indoorcard2.png","outdoorcard2.png","scene","obj1","scene1","scene2","face2","face1","obj1","obj2",501,1,21.43561644,1
"MotER_501","Test","4","1","562","1","2","1","scene1scene2","None","mooncard.png","jupitercard.png","womancard2.png","mancard.png","indoorcard2.png","outdoorcard2.png","scene","scene1","scene1","scene2","face2","face1","obj1","obj2",501,1,21.43561644,1
"MotER_501","Test","3","1","944","1","2","1","face2face1","None","mooncard.png","jupitercard.png","womancard2.png","mancard.png","indoorcard2.png","outdoorcard2.png","scene","face2","scene1","scene2","face2","face1","obj1","obj2",501,1,21.43561644,1
"MotER_501","Test","2","2","600","1","2","1","face1face2","None","mooncard.png","jupitercard.png","womancard2.png","mancard.png","indoorcard2.png","outdoorcard2.png","scene","face2","scene1","scene2","face2","face1","obj1","obj2",501,1,21.43561644,1
"MotER_501","Test","23","2","525","1","2","1","face1obj1","None","mooncard.png","jupitercard.png","womancard2.png","mancard.png","indoorcard2.png","outdoorcard2.png","scene","obj1","scene1","scene2","face2","face1","obj1","obj2",501,1,21.43561644,1
"MotER_501","Test","16","1","607","1","2","1","scene1obj2","None","mooncard.png","jupitercard.png","womancard2.png","mancard.png","indoorcard2.png","outdoorcard2.png","scene","scene1","scene1","scene2","face2","face1","obj1","obj2",501,1,21.43561644,1
"MotER_501","Test","24","1","624","1","2","1","obj1face2","None","mooncard.png","jupitercard.png","womancard2.png","mancard.png","indoorcard2.png","outdoorcard2.png","scene","obj1","scene1","scene2","face2","face1","obj1","obj2",501,1,21.43561644,1
"MotER_501","Test","9","1","1878","1","2","1","face2scene1","None","mooncard.png","jupitercard.png","womancard2.png","mancard.png","indoorcard2.png","outdoorcard2.png","scene","face2","scene1","scene2","face2","face1","obj1","obj2",501,1,21.43561644,1
"MotER_501","Test","1","2","649","1","2","1","obj2obj1","None","mooncard.png","jupitercard.png","womancard2.png","mancard.png","indoorcard2.png","outdoorcard2.png","scene","obj1","scene1","scene2","face2","face1","obj1","obj2",501,1,21.43561644,1
"MotER_501","Test","20","1","1339","1","2","1","scene2obj2","None","mooncard.png","jupitercard.png","womancard2.png","mancard.png","indoorcard2.png","outdoorcard2.png","scene","scene2","scene1","scene2","face2","face1","obj1","obj2",501,1,21.43561644,1
"MotER_501","Test","10","1","892","1","2","1","scene2face1","None","mooncard.png","jupitercard.png","womancard2.png","mancard.png","indoorcard2.png","outdoorcard2.png","scene","scene2","scene1","scene2","face2","face1","obj1","obj2",501,1,21.43561644,1
"MotER_501","Test","6","2","793","1","2","1","scene1face1","None","mooncard.png","jupitercard.png","womancard2.png","mancard.png","indoorcard2.png","outdoorcard2.png","scene","face1","scene1","scene2","face2","face1","obj1","obj2",501,1,21.43561644,1
"MotER_501","Test","7","2","2192","1","2","1","face1scene1","None","mooncard.png","jupitercard.png","womancard2.png","mancard.png","indoorcard2.png","outdoorcard2.png","scene","scene1","scene1","scene2","face2","face1","obj1","obj2",501,1,21.43561644,1
"MotER_501","Test","21","1","3907","1","2","1","obj2scene2","None","mooncard.png","jupitercard.png","womancard2.png","mancard.png","indoorcard2.png","outdoorcard2.png","scene","obj2","scene1","scene2","face2","face1","obj1","obj2",501,1,21.43561644,1
"MotER_501","Test","17","2","1151","1","2","1","obj2scene1","None","mooncard.png","jupitercard.png","womancard2.png","mancard.png","indoorcard2.png","outdoorcard2.png","scene","scene1","scene1","scene2","face2","face1","obj1","obj2",501,1,21.43561644,1
"MotER_501","Test","12","2","941","1","2","1","scene2face2","None","mooncard.png","jupitercard.png","womancard2.png","mancard.png","indoorcard2.png","outdoorcard2.png","scene","face2","scene1","scene2","face2","face1","obj1","obj2",501,1,21.43561644,1
"MotER_501","Test","28","2","637","1","2","1","obj2face2","None","mooncard.png","jupitercard.png","womancard2.png","mancard.png","indoorcard2.png","outdoorcard2.png","scene","face2","scene1","scene2","face2","face1","obj1","obj2",501,1,21.43561644,1
"MotER_501","Test","13","1","1055","1","2","1","face2scene2","None","mooncard.png","jupitercard.png","womancard2.png","mancard.png","indoorcard2.png","outdoorcard2.png","scene","face2","scene1","scene2","face2","face1","obj1","obj2",501,1,21.43561644,1
"MotER_501","Test","27","1","1376","1","2","1","face1obj2","None","mooncard.png","jupitercard.png","womancard2.png","mancard.png","indoorcard2.png","outdoorcard2.png","scene","face1","scene1","scene2","face2","face1","obj1","obj2",501,1,21.43561644,1
"MotER_501","Test","0","1","576","1","2","1","obj1obj2","None","mooncard.png","jupitercard.png","womancard2.png","mancard.png","indoorcard2.png","outdoorcard2.png","scene","obj1","scene1","scene2","face2","face1","obj1","obj2",501,1,21.43561644,1
"MotER_501","Test","15","1","454","1","2","1","obj1scene1","None","mooncard.png","jupitercard.png","womancard2.png","mancard.png","indoorcard2.png","outdoorcard2.png","scene","obj1","scene1","scene2","face2","face1","obj1","obj2",501,1,21.43561644,1
"MotER_502","Test","3","1","4123","2","2","2","face2face1","None","jupitercard.png","mooncard.png","mancard2.png","womancard2.png","outdoorcard.png","indoorcard2.png","face","face2","face2","face1","scene2","scene1","obj2","obj1",502,0,24.99178082,1
"MotER_502","Test","4","2","2069","2","2","2","scene1scene2","None","jupitercard.png","mooncard.png","mancard2.png","womancard2.png","outdoorcard.png","indoorcard2.png","face","scene2","face2","face1","scene2","scene1","obj2","obj1",502,0,24.99178082,1
"MotER_502","Test","27","2","2430","2","2","2","face1obj2","None","jupitercard.png","mooncard.png","mancard2.png","womancard2.png","outdoorcard.png","indoorcard2.png","face","obj2","face2","face1","scene2","scene1","obj2","obj1",502,0,24.99178082,1
"MotER_502","Test","8","2","2544","2","2","2","scene1face2","None","jupitercard.png","mooncard.png","mancard2.png","womancard2.png","outdoorcard.png","indoorcard2.png","face","face2","face2","face1","scene2","scene1","obj2","obj1",502,0,24.99178082,1
"MotER_502","Test","9","1","2243","2","2","2","face2scene1","None","jupitercard.png","mooncard.png","mancard2.png","womancard2.png","outdoorcard.png","indoorcard2.png","face","face2","face2","face1","scene2","scene1","obj2","obj1",502,0,24.99178082,1
"MotER_502","Test","22","2","4166","2","2","2","obj1face1","None","jupitercard.png","mooncard.png","mancard2.png","womancard2.png","outdoorcard.png","indoorcard2.png","face","face1","face2","face1","scene2","scene1","obj2","obj1",502,0,24.99178082,1
"MotER_502","Test","7","1","8155","2","2","2","face1scene1","None","jupitercard.png","mooncard.png","mancard2.png","womancard2.png","outdoorcard.png","indoorcard2.png","face","face1","face2","face1","scene2","scene1","obj2","obj1",502,0,24.99178082,1
"MotER_502","Test","5","1","2028","2","2","2","scene2scene1","None","jupitercard.png","mooncard.png","mancard2.png","womancard2.png","outdoorcard.png","indoorcard2.png","face","scene2","face2","face1","scene2","scene1","obj2","obj1",502,0,24.99178082,1
"MotER_502","Test","25","1","1408","2","2","2","face2obj1","None","jupitercard.png","mooncard.png","mancard2.png","womancard2.png","outdoorcard.png","indoorcard2.png","face","face2","face2","face1","scene2","scene1","obj2","obj1",502,0,24.99178082,1
"MotER_502","Test","19","2","1422","2","2","2","obj1scene2","None","jupitercard.png","mooncard.png","mancard2.png","womancard2.png","outdoorcard.png","indoorcard2.png","face","scene2","face2","face1","scene2","scene1","obj2","obj1",502,0,24.99178082,1
"MotER_502","Test","1","1","1081","2","2","2","obj2obj1","None","jupitercard.png","mooncard.png","mancard2.png","womancard2.png","outdoorcard.png","indoorcard2.png","face","obj2","face2","face1","scene2","scene1","obj2","obj1",502,0,24.99178082,1
"MotER_502","Test","28","1","1503","2","2","2","obj2face2","None","jupitercard.png","mooncard.png","mancard2.png","womancard2.png","outdoorcard.png","indoorcard2.png","face","obj2","face2","face1","scene2","scene1","obj2","obj1",502,0,24.99178082,1
"MotER_502","Test","23","1","3289","2","2","2","face1obj1","None","jupitercard.png","mooncard.png","mancard2.png","womancard2.png","outdoorcard.png","indoorcard2.png","face","face1","face2","face1","scene2","scene1","obj2","obj1",502,0,24.99178082,1
"MotER_502","Test","14","1","2438","2","2","2","scene1obj1","None","jupitercard.png","mooncard.png","mancard2.png","womancard2.png","outdoorcard.png","indoorcard2.png","face","scene1","face2","face1","scene2","scene1","obj2","obj1",502,0,24.99178082,1
"MotER_502","Test","20","2","1964","2","2","2","scene2obj2","None","jupitercard.png","mooncard.png","mancard2.png","womancard2.png","outdoorcard.png","indoorcard2.png","face","obj2","face2","face1","scene2","scene1","obj2","obj1",502,0,24.99178082,1
"MotER_502","Test","2","2","1523","2","2","2","face1face2","None","jupitercard.png","mooncard.png","mancard2.png","womancard2.png","outdoorcard.png","indoorcard2.png","face","face2","face2","face1","scene2","scene1","obj2","obj1",502,0,24.99178082,1
"MotER_502","Test","24","2","1959","2","2","2","obj1face2","None","jupitercard.png","mooncard.png","mancard2.png","womancard2.png","outdoorcard.png","indoorcard2.png","face","face2","face2","face1","scene2","scene1","obj2","obj1",502,0,24.99178082,1
"MotER_502","Test","21","1","1349","2","2","2","obj2scene2","None","jupitercard.png","mooncard.png","mancard2.png","womancard2.png","outdoorcard.png","indoorcard2.png","face","obj2","face2","face1","scene2","scene1","obj2","obj1",502,0,24.99178082,1
"MotER_502","Test","6","1","1796","2","2","2","scene1face1","None","jupitercard.png","mooncard.png","mancard2.png","womancard2.png","outdoorcard.png","indoorcard2.png","face","scene1","face2","face1","scene2","scene1","obj2","obj1",502,0,24.99178082,1
"MotER_502","Test","10","1","3189","2","2","2","scene2face1","None","jupitercard.png","mooncard.png","mancard2.png","womancard2.png","outdoorcard.png","indoorcard2.png","face","scene2","face2","face1","scene2","scene1","obj2","obj1",502,0,24.99178082,1
"MotER_502","Test","12","1","2402","2","2","2","scene2face2","None","jupitercard.png","mooncard.png","mancard2.png","womancard2.png","outdoorcard.png","indoorcard2.png","face","scene2","face2","face1","scene2","scene1","obj2","obj1",502,0,24.99178082,1
"MotER_502","Test","11","2","1792","2","2","2","face1scene2","None","jupitercard.png","mooncard.png","mancard2.png","womancard2.png","outdoorcard.png","indoorcard2.png","face","scene2","face2","face1","scene2","scene1","obj2","obj1",502,0,24.99178082,1
"MotER_502","Test","15","2","3973","2","2","2","obj1scene1","None","jupitercard.png","mooncard.png","mancard2.png","womancard2.png","outdoorcard.png","indoorcard2.png","face","scene1","face2","face1","scene2","scene1","obj2","obj1",502,0,24.99178082,1
"MotER_502","Test","16","2","1561","2","2","2","scene1obj2","None","jupitercard.png","mooncard.png","mancard2.png","womancard2.png","outdoorcard.png","indoorcard2.png","face","obj2","face2","face1","scene2","scene1","obj2","obj1",502,0,24.99178082,1
"MotER_502","Test","29","2","1372","2","2","2","face2obj2","None","jupitercard.png","mooncard.png","mancard2.png","womancard2.png","outdoorcard.png","indoorcard2.png","face","obj2","face2","face1","scene2","scene1","obj2","obj1",502,0,24.99178082,1
"MotER_502","Test","13","2","2943","2","2","2","face2scene2","None","jupitercard.png","mooncard.png","mancard2.png","womancard2.png","outdoorcard.png","indoorcard2.png","face","scene2","face2","face1","scene2","scene1","obj2","obj1",502,0,24.99178082,1
"MotER_502","Test","26","1","1098","2","2","2","obj2face1","None","jupitercard.png","mooncard.png","mancard2.png","womancard2.png","outdoorcard.png","indoorcard2.png","face","obj2","face2","face1","scene2","scene1","obj2","obj1",502,0,24.99178082,1
"MotER_502","Test","0","2","1054","2","2","2","obj1obj2","None","jupitercard.png","mooncard.png","mancard2.png","womancard2.png","outdoorcard.png","indoorcard2.png","face","obj2","face2","face1","scene2","scene1","obj2","obj1",502,0,24.99178082,1
"MotER_502","Test","17","1","1115","2","2","2","obj2scene1","None","jupitercard.png","mooncard.png","mancard2.png","womancard2.png","outdoorcard.png","indoorcard2.png","face","obj2","face2","face1","scene2","scene1","obj2","obj1",502,0,24.99178082,1
"MotER_502","Test","18","1","1544","2","2","2","scene2obj1","None","jupitercard.png","mooncard.png","mancard2.png","womancard2.png","outdoorcard.png","indoorcard2.png","face","scene2","face2","face1","scene2","scene1","obj2","obj1",502,0,24.99178082,1
"MotER_502","Test","3","1","1344","2","2","2","face2face1","None","jupitercard.png","mooncard.png","mancard2.png","womancard2.png","outdoorcard.png","indoorcard2.png","face","face2","face2","face1","scene2","scene1","obj2","obj1",502,0,24.99178082,1
"MotER_502","Test","4","2","1237","2","2","2","scene1scene2","None","jupitercard.png","mooncard.png","mancard2.png","womancard2.png","outdoorcard.png","indoorcard2.png","face","scene2","face2","face1","scene2","scene1","obj2","obj1",502,0,24.99178082,1
"MotER_502","Test","27","2","1351","2","2","2","face1obj2","None","jupitercard.png","mooncard.png","mancard2.png","womancard2.png","outdoorcard.png","indoorcard2.png","face","obj2","face2","face1","scene2","scene1","obj2","obj1",502,0,24.99178082,1
"MotER_502","Test","8","2","1322","2","2","2","scene1face2","None","jupitercard.png","mooncard.png","mancard2.png","womancard2.png","outdoorcard.png","indoorcard2.png","face","face2","face2","face1","scene2","scene1","obj2","obj1",502,0,24.99178082,1
"MotER_502","Test","9","1","1333","2","2","2","face2scene1","None","jupitercard.png","mooncard.png","mancard2.png","womancard2.png","outdoorcard.png","indoorcard2.png","face","face2","face2","face1","scene2","scene1","obj2","obj1",502,0,24.99178082,1
"MotER_502","Test","22","1","3670","2","2","2","obj1face1","None","jupitercard.png","mooncard.png","mancard2.png","womancard2.png","outdoorcard.png","indoorcard2.png","face","obj1","face2","face1","scene2","scene1","obj2","obj1",502,0,24.99178082,1
"MotER_502","Test","7","2","1642","2","2","2","face1scene1","None","jupitercard.png","mooncard.png","mancard2.png","womancard2.png","outdoorcard.png","indoorcard2.png","face","scene1","face2","face1","scene2","scene1","obj2","obj1",502,0,24.99178082,1
"MotER_502","Test","5","1","1284","2","2","2","scene2scene1","None","jupitercard.png","mooncard.png","mancard2.png","womancard2.png","outdoorcard.png","indoorcard2.png","face","scene2","face2","face1","scene2","scene1","obj2","obj1",502,0,24.99178082,1
"MotER_502","Test","25","1","1052","2","2","2","face2obj1","None","jupitercard.png","mooncard.png","mancard2.png","womancard2.png","outdoorcard.png","indoorcard2.png","face","face2","face2","face1","scene2","scene1","obj2","obj1",502,0,24.99178082,1
"MotER_502","Test","19","2","909","2","2","2","obj1scene2","None","jupitercard.png","mooncard.png","mancard2.png","womancard2.png","outdoorcard.png","indoorcard2.png","face","scene2","face2","face1","scene2","scene1","obj2","obj1",502,0,24.99178082,1
"MotER_502","Test","1","1","590","2","2","2","obj2obj1","None","jupitercard.png","mooncard.png","mancard2.png","womancard2.png","outdoorcard.png","indoorcard2.png","face","obj2","face2","face1","scene2","scene1","obj2","obj1",502,0,24.99178082,1
"MotER_502","Test","28","1","987","2","2","2","obj2face2","None","jupitercard.png","mooncard.png","mancard2.png","womancard2.png","outdoorcard.png","indoorcard2.png","face","obj2","face2","face1","scene2","scene1","obj2","obj1",502,0,24.99178082,1
"MotER_502","Test","23","1","3512","2","2","2","face1obj1","None","jupitercard.png","mooncard.png","mancard2.png","womancard2.png","outdoorcard.png","indoorcard2.png","face","face1","face2","face1","scene2","scene1","obj2","obj1",502,0,24.99178082,1
"MotER_502","Test","14","1","4260","2","2","2","scene1obj1","None","jupitercard.png","mooncard.png","mancard2.png","womancard2.png","outdoorcard.png","indoorcard2.png","face","scene1","face2","face1","scene2","scene1","obj2","obj1",502,0,24.99178082,1
"MotER_502","Test","20","2","740","2","2","2","scene2obj2","None","jupitercard.png","mooncard.png","mancard2.png","womancard2.png","outdoorcard.png","indoorcard2.png","face","obj2","face2","face1","scene2","scene1","obj2","obj1",502,0,24.99178082,1
"MotER_502","Test","2","2","1015","2","2","2","face1face2","None","jupitercard.png","mooncard.png","mancard2.png","womancard2.png","outdoorcard.png","indoorcard2.png","face","face2","face2","face1","scene2","scene1","obj2","obj1",502,0,24.99178082,1
"MotER_502","Test","24","2","1208","2","2","2","obj1face2","None","jupitercard.png","mooncard.png","mancard2.png","womancard2.png","outdoorcard.png","indoorcard2.png","face","face2","face2","face1","scene2","scene1","obj2","obj1",502,0,24.99178082,1
"MotER_502","Test","21","1","750","2","2","2","obj2scene2","None","jupitercard.png","mooncard.png","mancard2.png","womancard2.png","outdoorcard.png","indoorcard2.png","face","obj2","face2","face1","scene2","scene1","obj2","obj1",502,0,24.99178082,1
"MotER_502","Test","6","1","3544","2","2","2","scene1face1","None","jupitercard.png","mooncard.png","mancard2.png","womancard2.png","outdoorcard.png","indoorcard2.png","face","scene1","face2","face1","scene2","scene1","obj2","obj1",502,0,24.99178082,1
"MotER_502","Test","10","1","1208","2","2","2","scene2face1","None","jupitercard.png","mooncard.png","mancard2.png","womancard2.png","outdoorcard.png","indoorcard2.png","face","scene2","face2","face1","scene2","scene1","obj2","obj1",502,0,24.99178082,1
"MotER_502","Test","12","1","1536","2","2","2","scene2face2","None","jupitercard.png","mooncard.png","mancard2.png","womancard2.png","outdoorcard.png","indoorcard2.png","face","scene2","face2","face1","scene2","scene1","obj2","obj1",502,0,24.99178082,1
"MotER_502","Test","11","2","1386","2","2","2","face1scene2","None","jupitercard.png","mooncard.png","mancard2.png","womancard2.png","outdoorcard.png","indoorcard2.png","face","scene2","face2","face1","scene2","scene1","obj2","obj1",502,0,24.99178082,1
"MotER_502","Test","15","2","5895","2","2","2","obj1scene1","None","jupitercard.png","mooncard.png","mancard2.png","womancard2.png","outdoorcard.png","indoorcard2.png","face","scene1","face2","face1","scene2","scene1","obj2","obj1",502,0,24.99178082,1
"MotER_502","Test","16","2","846","2","2","2","scene1obj2","None","jupitercard.png","mooncard.png","mancard2.png","womancard2.png","outdoorcard.png","indoorcard2.png","face","obj2","face2","face1","scene2","scene1","obj2","obj1",502,0,24.99178082,1
"MotER_502","Test","29","2","976","2","2","2","face2obj2","None","jupitercard.png","mooncard.png","mancard2.png","womancard2.png","outdoorcard.png","indoorcard2.png","face","obj2","face2","face1","scene2","scene1","obj2","obj1",502,0,24.99178082,1
"MotER_502","Test","13","2","4581","2","2","2","face2scene2","None","jupitercard.png","mooncard.png","mancard2.png","womancard2.png","outdoorcard.png","indoorcard2.png","face","scene2","face2","face1","scene2","scene1","obj2","obj1",502,0,24.99178082,1
"MotER_502","Test","26","1","1065","2","2","2","obj2face1","None","jupitercard.png","mooncard.png","mancard2.png","womancard2.png","outdoorcard.png","indoorcard2.png","face","obj2","face2","face1","scene2","scene1","obj2","obj1",502,0,24.99178082,1
"MotER_502","Test","0","2","708","2","2","2","obj1obj2","None","jupitercard.png","mooncard.png","mancard2.png","womancard2.png","outdoorcard.png","indoorcard2.png","face","obj2","face2","face1","scene2","scene1","obj2","obj1",502,0,24.99178082,1
"MotER_502","Test","17","1","1085","2","2","2","obj2scene1","None","jupitercard.png","mooncard.png","mancard2.png","womancard2.png","outdoorcard.png","indoorcard2.png","face","obj2","face2","face1","scene2","scene1","obj2","obj1",502,0,24.99178082,1
"MotER_502","Test","18","1","1995","2","2","2","scene2obj1","None","jupitercard.png","mooncard.png","mancard2.png","womancard2.png","outdoorcard.png","indoorcard2.png","face","scene2","face2","face1","scene2","scene1","obj2","obj1",502,0,24.99178082,1
"MotER_502","Test","3","1","947","2","2","2","face2face1","None","jupitercard.png","mooncard.png","mancard2.png","womancard2.png","outdoorcard.png","indoorcard2.png","face","face2","face2","face1","scene2","scene1","obj2","obj1",502,0,24.99178082,1
"MotER_502","Test","4","2","1075","2","2","2","scene1scene2","None","jupitercard.png","mooncard.png","mancard2.png","womancard2.png","outdoorcard.png","indoorcard2.png","face","scene2","face2","face1","scene2","scene1","obj2","obj1",502,0,24.99178082,1
"MotER_502","Test","27","2","1150","2","2","2","face1obj2","None","jupitercard.png","mooncard.png","mancard2.png","womancard2.png","outdoorcard.png","indoorcard2.png","face","obj2","face2","face1","scene2","scene1","obj2","obj1",502,0,24.99178082,1
"MotER_502","Test","8","2","1478","2","2","2","scene1face2","None","jupitercard.png","mooncard.png","mancard2.png","womancard2.png","outdoorcard.png","indoorcard2.png","face","face2","face2","face1","scene2","scene1","obj2","obj1",502,0,24.99178082,1
"MotER_502","Test","9","1","944","2","2","2","face2scene1","None","jupitercard.png","mooncard.png","mancard2.png","womancard2.png","outdoorcard.png","indoorcard2.png","face","face2","face2","face1","scene2","scene1","obj2","obj1",502,0,24.99178082,1
"MotER_502","Test","22","2","2994","2","2","2","obj1face1","None","jupitercard.png","mooncard.png","mancard2.png","womancard2.png","outdoorcard.png","indoorcard2.png","face","face1","face2","face1","scene2","scene1","obj2","obj1",502,0,24.99178082,1
"MotER_502","Test","7","2","1718","2","2","2","face1scene1","None","jupitercard.png","mooncard.png","mancard2.png","womancard2.png","outdoorcard.png","indoorcard2.png","face","scene1","face2","face1","scene2","scene1","obj2","obj1",502,0,24.99178082,1
"MotER_502","Test","5","1","957","2","2","2","scene2scene1","None","jupitercard.png","mooncard.png","mancard2.png","womancard2.png","outdoorcard.png","indoorcard2.png","face","scene2","face2","face1","scene2","scene1","obj2","obj1",502,0,24.99178082,1
"MotER_502","Test","25","1","788","2","2","2","face2obj1","None","jupitercard.png","mooncard.png","mancard2.png","womancard2.png","outdoorcard.png","indoorcard2.png","face","face2","face2","face1","scene2","scene1","obj2","obj1",502,0,24.99178082,1
"MotER_502","Test","19","2","1054","2","2","2","obj1scene2","None","jupitercard.png","mooncard.png","mancard2.png","womancard2.png","outdoorcard.png","indoorcard2.png","face","scene2","face2","face1","scene2","scene1","obj2","obj1",502,0,24.99178082,1
"MotER_502","Test","1","2","646","2","2","2","obj2obj1","None","jupitercard.png","mooncard.png","mancard2.png","womancard2.png","outdoorcard.png","indoorcard2.png","face","obj1","face2","face1","scene2","scene1","obj2","obj1",502,0,24.99178082,1
"MotER_502","Test","28","1","967","2","2","2","obj2face2","None","jupitercard.png","mooncard.png","mancard2.png","womancard2.png","outdoorcard.png","indoorcard2.png","face","obj2","face2","face1","scene2","scene1","obj2","obj1",502,0,24.99178082,1
"MotER_502","Test","23","1","2923","2","2","2","face1obj1","None","jupitercard.png","mooncard.png","mancard2.png","womancard2.png","outdoorcard.png","indoorcard2.png","face","face1","face2","face1","scene2","scene1","obj2","obj1",502,0,24.99178082,1
"MotER_502","Test","14","1","2655","2","2","2","scene1obj1","None","jupitercard.png","mooncard.png","mancard2.png","womancard2.png","outdoorcard.png","indoorcard2.png","face","scene1","face2","face1","scene2","scene1","obj2","obj1",502,0,24.99178082,1
"MotER_502","Test","20","2","546","2","2","2","scene2obj2","None","jupitercard.png","mooncard.png","mancard2.png","womancard2.png","outdoorcard.png","indoorcard2.png","face","obj2","face2","face1","scene2","scene1","obj2","obj1",502,0,24.99178082,1
"MotER_502","Test","2","2","713","2","2","2","face1face2","None","jupitercard.png","mooncard.png","mancard2.png","womancard2.png","outdoorcard.png","indoorcard2.png","face","face2","face2","face1","scene2","scene1","obj2","obj1",502,0,24.99178082,1
"MotER_502","Test","24","2","1814","2","2","2","obj1face2","None","jupitercard.png","mooncard.png","mancard2.png","womancard2.png","outdoorcard.png","indoorcard2.png","face","face2","face2","face1","scene2","scene1","obj2","obj1",502,0,24.99178082,1
"MotER_502","Test","21","1","1090","2","2","2","obj2scene2","None","jupitercard.png","mooncard.png","mancard2.png","womancard2.png","outdoorcard.png","indoorcard2.png","face","obj2","face2","face1","scene2","scene1","obj2","obj1",502,0,24.99178082,1
"MotER_502","Test","6","2","3533","2","2","2","scene1face1","None","jupitercard.png","mooncard.png","mancard2.png","womancard2.png","outdoorcard.png","indoorcard2.png","face","face1","face2","face1","scene2","scene1","obj2","obj1",502,0,24.99178082,1
"MotER_502","Test","10","1","1608","2","2","2","scene2face1","None","jupitercard.png","mooncard.png","mancard2.png","womancard2.png","outdoorcard.png","indoorcard2.png","face","scene2","face2","face1","scene2","scene1","obj2","obj1",502,0,24.99178082,1
"MotER_502","Test","12","1","1699","2","2","2","scene2face2","None","jupitercard.png","mooncard.png","mancard2.png","womancard2.png","outdoorcard.png","indoorcard2.png","face","scene2","face2","face1","scene2","scene1","obj2","obj1",502,0,24.99178082,1
"MotER_502","Test","11","2","1213","2","2","2","face1scene2","None","jupitercard.png","mooncard.png","mancard2.png","womancard2.png","outdoorcard.png","indoorcard2.png","face","scene2","face2","face1","scene2","scene1","obj2","obj1",502,0,24.99178082,1
"MotER_502","Test","15","2","3479","2","2","2","obj1scene1","None","jupitercard.png","mooncard.png","mancard2.png","womancard2.png","outdoorcard.png","indoorcard2.png","face","scene1","face2","face1","scene2","scene1","obj2","obj1",502,0,24.99178082,1
"MotER_502","Test","16","2","803","2","2","2","scene1obj2","None","jupitercard.png","mooncard.png","mancard2.png","womancard2.png","outdoorcard.png","indoorcard2.png","face","obj2","face2","face1","scene2","scene1","obj2","obj1",502,0,24.99178082,1
"MotER_502","Test","29","2","831","2","2","2","face2obj2","None","jupitercard.png","mooncard.png","mancard2.png","womancard2.png","outdoorcard.png","indoorcard2.png","face","obj2","face2","face1","scene2","scene1","obj2","obj1",502,0,24.99178082,1
"MotER_502","Test","13","2","1677","2","2","2","face2scene2","None","jupitercard.png","mooncard.png","mancard2.png","womancard2.png","outdoorcard.png","indoorcard2.png","face","scene2","face2","face1","scene2","scene1","obj2","obj1",502,0,24.99178082,1
"MotER_502","Test","26","1","1323","2","2","2","obj2face1","None","jupitercard.png","mooncard.png","mancard2.png","womancard2.png","outdoorcard.png","indoorcard2.png","face","obj2","face2","face1","scene2","scene1","obj2","obj1",502,0,24.99178082,1
"MotER_502","Test","0","2","909","2","2","2","obj1obj2","None","jupitercard.png","mooncard.png","mancard2.png","womancard2.png","outdoorcard.png","indoorcard2.png","face","obj2","face2","face1","scene2","scene1","obj2","obj1",502,0,24.99178082,1
"MotER_502","Test","17","1","822","2","2","2","obj2scene1","None","jupitercard.png","mooncard.png","mancard2.png","womancard2.png","outdoorcard.png","indoorcard2.png","face","obj2","face2","face1","scene2","scene1","obj2","obj1",502,0,24.99178082,1
"MotER_502","Test","18","1","1216","2","2","2","scene2obj1","None","jupitercard.png","mooncard.png","mancard2.png","womancard2.png","outdoorcard.png","indoorcard2.png","face","scene2","face2","face1","scene2","scene1","obj2","obj1",502,0,24.99178082,1
"MotER_503","Test","0","1","1530","1","2","1","obj1obj2","None","mooncard.png","jupitercard.png","womancard2.png","mancard.png","indoorcard2.png","outdoorcard2.png","scene","obj1","scene1","scene2","face2","face1","obj1","obj2",503,1,24.59178082,1
"MotER_503","Test","13","1","2256","1","2","1","face2scene2","None","mooncard.png","jupitercard.png","womancard2.png","mancard.png","indoorcard2.png","outdoorcard2.png","scene","face2","scene1","scene2","face2","face1","obj1","obj2",503,1,24.59178082,1
"MotER_503","Test","10","1","2950","1","2","1","scene2face1","None","mooncard.png","jupitercard.png","womancard2.png","mancard.png","indoorcard2.png","outdoorcard2.png","scene","scene2","scene1","scene2","face2","face1","obj1","obj2",503,1,24.59178082,1
"MotER_503","Test","4","1","1212","1","2","1","scene1scene2","None","mooncard.png","jupitercard.png","womancard2.png","mancard.png","indoorcard2.png","outdoorcard2.png","scene","scene1","scene1","scene2","face2","face1","obj1","obj2",503,1,24.59178082,1
"MotER_503","Test","19","1","1571","1","2","1","obj1scene2","None","mooncard.png","jupitercard.png","womancard2.png","mancard.png","indoorcard2.png","outdoorcard2.png","scene","obj1","scene1","scene2","face2","face1","obj1","obj2",503,1,24.59178082,1
"MotER_503","Test","26","2","1991","1","2","1","obj2face1","None","mooncard.png","jupitercard.png","womancard2.png","mancard.png","indoorcard2.png","outdoorcard2.png","scene","face1","scene1","scene2","face2","face1","obj1","obj2",503,1,24.59178082,1
"MotER_503","Test","14","1","2976","1","2","1","scene1obj1","None","mooncard.png","jupitercard.png","womancard2.png","mancard.png","indoorcard2.png","outdoorcard2.png","scene","scene1","scene1","scene2","face2","face1","obj1","obj2",503,1,24.59178082,1
"MotER_503","Test","23","1","3063","1","2","1","face1obj1","None","mooncard.png","jupitercard.png","womancard2.png","mancard.png","indoorcard2.png","outdoorcard2.png","scene","face1","scene1","scene2","face2","face1","obj1","obj2",503,1,24.59178082,1
"MotER_503","Test","6","1","2224","1","2","1","scene1face1","None","mooncard.png","jupitercard.png","womancard2.png","mancard.png","indoorcard2.png","outdoorcard2.png","scene","scene1","scene1","scene2","face2","face1","obj1","obj2",503,1,24.59178082,1
"MotER_503","Test","17","2","4003","1","2","1","obj2scene1","None","mooncard.png","jupitercard.png","womancard2.png","mancard.png","indoorcard2.png","outdoorcard2.png","scene","scene1","scene1","scene2","face2","face1","obj1","obj2",503,1,24.59178082,1
"MotER_503","Test","24","2","1763","1","2","1","obj1face2","None","mooncard.png","jupitercard.png","womancard2.png","mancard.png","indoorcard2.png","outdoorcard2.png","scene","face2","scene1","scene2","face2","face1","obj1","obj2",503,1,24.59178082,1
"MotER_503","Test","1","2","1205","1","2","1","obj2obj1","None","mooncard.png","jupitercard.png","womancard2.png","mancard.png","indoorcard2.png","outdoorcard2.png","scene","obj1","scene1","scene2","face2","face1","obj1","obj2",503,1,24.59178082,1
"MotER_503","Test","27","2","1637","1","2","1","face1obj2","None","mooncard.png","jupitercard.png","womancard2.png","mancard.png","indoorcard2.png","outdoorcard2.png","scene","obj2","scene1","scene2","face2","face1","obj1","obj2",503,1,24.59178082,1
"MotER_503","Test","2","2","952","1","2","1","face1face2","None","mooncard.png","jupitercard.png","womancard2.png","mancard.png","indoorcard2.png","outdoorcard2.png","scene","face2","scene1","scene2","face2","face1","obj1","obj2",503,1,24.59178082,1
"MotER_503","Test","9","2","2694","1","2","1","face2scene1","None","mooncard.png","jupitercard.png","womancard2.png","mancard.png","indoorcard2.png","outdoorcard2.png","scene","scene1","scene1","scene2","face2","face1","obj1","obj2",503,1,24.59178082,1
"MotER_503","Test","28","2","1484","1","2","1","obj2face2","None","mooncard.png","jupitercard.png","womancard2.png","mancard.png","indoorcard2.png","outdoorcard2.png","scene","face2","scene1","scene2","face2","face1","obj1","obj2",503,1,24.59178082,1
"MotER_503","Test","16","1","915","1","2","1","scene1obj2","None","mooncard.png","jupitercard.png","womancard2.png","mancard.png","indoorcard2.png","outdoorcard2.png","scene","scene1","scene1","scene2","face2","face1","obj1","obj2",503,1,24.59178082,1
"MotER_503","Test","29","1","1409","1","2","1","face2obj2","None","mooncard.png","jupitercard.png","womancard2.png","mancard.png","indoorcard2.png","outdoorcard2.png","scene","face2","scene1","scene2","face2","face1","obj1","obj2",503,1,24.59178082,1
"MotER_503","Test","11","1","1836","1","2","1","face1scene2","None","mooncard.png","jupitercard.png","womancard2.png","mancard.png","indoorcard2.png","outdoorcard2.png","scene","face1","scene1","scene2","face2","face1","obj1","obj2",503,1,24.59178082,1
"MotER_503","Test","22","1","1001","1","2","1","obj1face1","None","mooncard.png","jupitercard.png","womancard2.png","mancard.png","indoorcard2.png","outdoorcard2.png","scene","obj1","scene1","scene2","face2","face1","obj1","obj2",503,1,24.59178082,1
"MotER_503","Test","12","2","1350","1","2","1","scene2face2","None","mooncard.png","jupitercard.png","womancard2.png","mancard.png","indoorcard2.png","outdoorcard2.png","scene","face2","scene1","scene2","face2","face1","obj1","obj2",503,1,24.59178082,1
"MotER_503","Test","7","2","899","1","2","1","face1scene1","None","mooncard.png","jupitercard.png","womancard2.png","mancard.png","indoorcard2.png","outdoorcard2.png","scene","scene1","scene1","scene2","face2","face1","obj1","obj2",503,1,24.59178082,1
"MotER_503","Test","25","1","2628","1","2","1","face2obj1","None","mooncard.png","jupitercard.png","womancard2.png","mancard.png","indoorcard2.png","outdoorcard2.png","scene","face2","scene1","scene2","face2","face1","obj1","obj2",503,1,24.59178082,1
"MotER_503","Test","8","2","1438","1","2","1","scene1face2","None","mooncard.png","jupitercard.png","womancard2.png","mancard.png","indoorcard2.png","outdoorcard2.png","scene","face2","scene1","scene2","face2","face1","obj1","obj2",503,1,24.59178082,1
"MotER_503","Test","5","2","1206","1","2","1","scene2scene1","None","mooncard.png","jupitercard.png","womancard2.png","mancard.png","indoorcard2.png","outdoorcard2.png","scene","scene1","scene1","scene2","face2","face1","obj1","obj2",503,1,24.59178082,1
"MotER_503","Test","21","2","1363","1","2","1","obj2scene2","None","mooncard.png","jupitercard.png","womancard2.png","mancard.png","indoorcard2.png","outdoorcard2.png","scene","scene2","scene1","scene2","face2","face1","obj1","obj2",503,1,24.59178082,1
"MotER_503","Test","20","1","1968","1","2","1","scene2obj2","None","mooncard.png","jupitercard.png","womancard2.png","mancard.png","indoorcard2.png","outdoorcard2.png","scene","scene2","scene1","scene2","face2","face1","obj1","obj2",503,1,24.59178082,1
"MotER_503","Test","18","2","1007","1","2","1","scene2obj1","None","mooncard.png","jupitercard.png","womancard2.png","mancard.png","indoorcard2.png","outdoorcard2.png","scene","obj1","scene1","scene2","face2","face1","obj1","obj2",503,1,24.59178082,1
"MotER_503","Test","3","1","1395","1","2","1","face2face1","None","mooncard.png","jupitercard.png","womancard2.png","mancard.png","indoorcard2.png","outdoorcard2.png","scene","face2","scene1","scene2","face2","face1","obj1","obj2",503,1,24.59178082,1
"MotER_503","Test","15","1","1079","1","2","1","obj1scene1","None","mooncard.png","jupitercard.png","womancard2.png","mancard.png","indoorcard2.png","outdoorcard2.png","scene","obj1","scene1","scene2","face2","face1","obj1","obj2",503,1,24.59178082,1
"MotER_503","Test","0","1","1256","1","2","1","obj1obj2","None","mooncard.png","jupitercard.png","womancard2.png","mancard.png","indoorcard2.png","outdoorcard2.png","scene","obj1","scene1","scene2","face2","face1","obj1","obj2",503,1,24.59178082,1
"MotER_503","Test","13","1","2241","1","2","1","face2scene2","None","mooncard.png","jupitercard.png","womancard2.png","mancard.png","indoorcard2.png","outdoorcard2.png","scene","face2","scene1","scene2","face2","face1","obj1","obj2",503,1,24.59178082,1
"MotER_503","Test","10","2","1282","1","2","1","scene2face1","None","mooncard.png","jupitercard.png","womancard2.png","mancard.png","indoorcard2.png","outdoorcard2.png","scene","face1","scene1","scene2","face2","face1","obj1","obj2",503,1,24.59178082,1
"MotER_503","Test","4","1","1008","1","2","1","scene1scene2","None","mooncard.png","jupitercard.png","womancard2.png","mancard.png","indoorcard2.png","outdoorcard2.png","scene","scene1","scene1","scene2","face2","face1","obj1","obj2",503,1,24.59178082,1
"MotER_503","Test","19","1","1007","1","2","1","obj1scene2","None","mooncard.png","jupitercard.png","womancard2.png","mancard.png","indoorcard2.png","outdoorcard2.png","scene","obj1","scene1","scene2","face2","face1","obj1","obj2",503,1,24.59178082,1
"MotER_503","Test","26","2","1424","1","2","1","obj2face1","None","mooncard.png","jupitercard.png","womancard2.png","mancard.png","indoorcard2.png","outdoorcard2.png","scene","face1","scene1","scene2","face2","face1","obj1","obj2",503,1,24.59178082,1
"MotER_503","Test","14","1","2045","1","2","1","scene1obj1","None","mooncard.png","jupitercard.png","womancard2.png","mancard.png","indoorcard2.png","outdoorcard2.png","scene","scene1","scene1","scene2","face2","face1","obj1","obj2",503,1,24.59178082,1
"MotER_503","Test","23","2","787","1","2","1","face1obj1","None","mooncard.png","jupitercard.png","womancard2.png","mancard.png","indoorcard2.png","outdoorcard2.png","scene","obj1","scene1","scene2","face2","face1","obj1","obj2",503,1,24.59178082,1
"MotER_503","Test","6","1","848","1","2","1","scene1face1","None","mooncard.png","jupitercard.png","womancard2.png","mancard.png","indoorcard2.png","outdoorcard2.png","scene","scene1","scene1","scene2","face2","face1","obj1","obj2",503,1,24.59178082,1
"MotER_503","Test","17","2","1263","1","2","1","obj2scene1","None","mooncard.png","jupitercard.png","womancard2.png","mancard.png","indoorcard2.png","outdoorcard2.png","scene","scene1","scene1","scene2","face2","face1","obj1","obj2",503,1,24.59178082,1
"MotER_503","Test","24","2","1461","1","2","1","obj1face2","None","mooncard.png","jupitercard.png","womancard2.png","mancard.png","indoorcard2.png","outdoorcard2.png","scene","face2","scene1","scene2","face2","face1","obj1","obj2",503,1,24.59178082,1
"MotER_503","Test","1","2","1269","1","2","1","obj2obj1","None","mooncard.png","jupitercard.png","womancard2.png","mancard.png","indoorcard2.png","outdoorcard2.png","scene","obj1","scene1","scene2","face2","face1","obj1","obj2",503,1,24.59178082,1
"MotER_503","Test","27","1","1119","1","2","1","face1obj2","None","mooncard.png","jupitercard.png","womancard2.png","mancard.png","indoorcard2.png","outdoorcard2.png","scene","face1","scene1","scene2","face2","face1","obj1","obj2",503,1,24.59178082,1
"MotER_503","Test","2","2","1389","1","2","1","face1face2","None","mooncard.png","jupitercard.png","womancard2.png","mancard.png","indoorcard2.png","outdoorcard2.png","scene","face2","scene1","scene2","face2","face1","obj1","obj2",503,1,24.59178082,1
"MotER_503","Test","9","1","1196","1","2","1","face2scene1","None","mooncard.png","jupitercard.png","womancard2.png","mancard.png","indoorcard2.png","outdoorcard2.png","scene","face2","scene1","scene2","face2","face1","obj1","obj2",503,1,24.59178082,1
"MotER_503","Test","28","2","1324","1","2","1","obj2face2","None","mooncard.png","jupitercard.png","womancard2.png","mancard.png","indoorcard2.png","outdoorcard2.png","scene","face2","scene1","scene2","face2","face1","obj1","obj2",503,1,24.59178082,1
"MotER_503","Test","16","1","716","1","2","1","scene1obj2","None","mooncard.png","jupitercard.png","womancard2.png","mancard.png","indoorcard2.png","outdoorcard2.png","scene","scene1","scene1","scene2","face2","face1","obj1","obj2",503,1,24.59178082,1
"MotER_503","Test","29","1","867","1","2","1","face2obj2","None","mooncard.png","jupitercard.png","womancard2.png","mancard.png","indoorcard2.png","outdoorcard2.png","scene","face2","scene1","scene2","face2","face1","obj1","obj2",503,1,24.59178082,1
"MotER_503","Test","11","2","1417","1","2","1","face1scene2","None","mooncard.png","jupitercard.png","womancard2.png","mancard.png","indoorcard2.png","outdoorcard2.png","scene","scene2","scene1","scene2","face2","face1","obj1","obj2",503,1,24.59178082,1
"MotER_503","Test","22","1","600","1","2","1","obj1face1","None","mooncard.png","jupitercard.png","womancard2.png","mancard.png","indoorcard2.png","outdoorcard2.png","scene","obj1","scene1","scene2","face2","face1","obj1","obj2",503,1,24.59178082,1
"MotER_503","Test","12","2","765","1","2","1","scene2face2","None","mooncard.png","jupitercard.png","womancard2.png","mancard.png","indoorcard2.png","outdoorcard2.png","scene","face2","scene1","scene2","face2","face1","obj1","obj2",503,1,24.59178082,1
"MotER_503","Test","7","2","1082","1","2","1","face1scene1","None","mooncard.png","jupitercard.png","womancard2.png","mancard.png","indoorcard2.png","outdoorcard2.png","scene","scene1","scene1","scene2","face2","face1","obj1","obj2",503,1,24.59178082,1
"MotER_503","Test","25","1","2223","1","2","1","face2obj1","None","mooncard.png","jupitercard.png","womancard2.png","mancard.png","indoorcard2.png","outdoorcard2.png","scene","face2","scene1","scene2","face2","face1","obj1","obj2",503,1,24.59178082,1
"MotER_503","Test","8","1","1496","1","2","1","scene1face2","None","mooncard.png","jupitercard.png","womancard2.png","mancard.png","indoorcard2.png","outdoorcard2.png","scene","scene1","scene1","scene2","face2","face1","obj1","obj2",503,1,24.59178082,1
"MotER_503","Test","5","2","1066","1","2","1","scene2scene1","None","mooncard.png","jupitercard.png","womancard2.png","mancard.png","indoorcard2.png","outdoorcard2.png","scene","scene1","scene1","scene2","face2","face1","obj1","obj2",503,1,24.59178082,1
"MotER_503","Test","21","1","1266","1","2","1","obj2scene2","None","mooncard.png","jupitercard.png","womancard2.png","mancard.png","indoorcard2.png","outdoorcard2.png","scene","obj2","scene1","scene2","face2","face1","obj1","obj2",503,1,24.59178082,1
"MotER_503","Test","20","2","1064","1","2","1","scene2obj2","None","mooncard.png","jupitercard.png","womancard2.png","mancard.png","indoorcard2.png","outdoorcard2.png","scene","obj2","scene1","scene2","face2","face1","obj1","obj2",503,1,24.59178082,1
"MotER_503","Test","18","2","742","1","2","1","scene2obj1","None","mooncard.png","jupitercard.png","womancard2.png","mancard.png","indoorcard2.png","outdoorcard2.png","scene","obj1","scene1","scene2","face2","face1","obj1","obj2",503,1,24.59178082,1
"MotER_503","Test","3","1","595","1","2","1","face2face1","None","mooncard.png","jupitercard.png","womancard2.png","mancard.png","indoorcard2.png","outdoorcard2.png","scene","face2","scene1","scene2","face2","face1","obj1","obj2",503,1,24.59178082,1
"MotER_503","Test","15","1","616","1","2","1","obj1scene1","None","mooncard.png","jupitercard.png","womancard2.png","mancard.png","indoorcard2.png","outdoorcard2.png","scene","obj1","scene1","scene2","face2","face1","obj1","obj2",503,1,24.59178082,1
"MotER_503","Test","0","1","1393","1","2","1","obj1obj2","None","mooncard.png","jupitercard.png","womancard2.png","mancard.png","indoorcard2.png","outdoorcard2.png","scene","obj1","scene1","scene2","face2","face1","obj1","obj2",503,1,24.59178082,1
"MotER_503","Test","13","1","733","1","2","1","face2scene2","None","mooncard.png","jupitercard.png","womancard2.png","mancard.png","indoorcard2.png","outdoorcard2.png","scene","face2","scene1","scene2","face2","face1","obj1","obj2",503,1,24.59178082,1
"MotER_503","Test","10","2","1045","1","2","1","scene2face1","None","mooncard.png","jupitercard.png","womancard2.png","mancard.png","indoorcard2.png","outdoorcard2.png","scene","face1","scene1","scene2","face2","face1","obj1","obj2",503,1,24.59178082,1
"MotER_503","Test","4","1","1977","1","2","1","scene1scene2","None","mooncard.png","jupitercard.png","womancard2.png","mancard.png","indoorcard2.png","outdoorcard2.png","scene","scene1","scene1","scene2","face2","face1","obj1","obj2",503,1,24.59178082,1
"MotER_503","Test","19","1","836","1","2","1","obj1scene2","None","mooncard.png","jupitercard.png","womancard2.png","mancard.png","indoorcard2.png","outdoorcard2.png","scene","obj1","scene1","scene2","face2","face1","obj1","obj2",503,1,24.59178082,1
"MotER_503","Test","26","2","1396","1","2","1","obj2face1","None","mooncard.png","jupitercard.png","womancard2.png","mancard.png","indoorcard2.png","outdoorcard2.png","scene","face1","scene1","scene2","face2","face1","obj1","obj2",503,1,24.59178082,1
"MotER_503","Test","14","1","1490","1","2","1","scene1obj1","None","mooncard.png","jupitercard.png","womancard2.png","mancard.png","indoorcard2.png","outdoorcard2.png","scene","scene1","scene1","scene2","face2","face1","obj1","obj2",503,1,24.59178082,1
"MotER_503","Test","23","2","677","1","2","1","face1obj1","None","mooncard.png","jupitercard.png","womancard2.png","mancard.png","indoorcard2.png","outdoorcard2.png","scene","obj1","scene1","scene2","face2","face1","obj1","obj2",503,1,24.59178082,1
"MotER_503","Test","6","1","2241","1","2","1","scene1face1","None","mooncard.png","jupitercard.png","womancard2.png","mancard.png","indoorcard2.png","outdoorcard2.png","scene","scene1","scene1","scene2","face2","face1","obj1","obj2",503,1,24.59178082,1
"MotER_503","Test","17","2","2760","1","2","1","obj2scene1","None","mooncard.png","jupitercard.png","womancard2.png","mancard.png","indoorcard2.png","outdoorcard2.png","scene","scene1","scene1","scene2","face2","face1","obj1","obj2",503,1,24.59178082,1
"MotER_503","Test","24","2","1028","1","2","1","obj1face2","None","mooncard.png","jupitercard.png","womancard2.png","mancard.png","indoorcard2.png","outdoorcard2.png","scene","face2","scene1","scene2","face2","face1","obj1","obj2",503,1,24.59178082,1
"MotER_503","Test","1","2","716","1","2","1","obj2obj1","None","mooncard.png","jupitercard.png","womancard2.png","mancard.png","indoorcard2.png","outdoorcard2.png","scene","obj1","scene1","scene2","face2","face1","obj1","obj2",503,1,24.59178082,1
"MotER_503","Test","27","1","1387","1","2","1","face1obj2","None","mooncard.png","jupitercard.png","womancard2.png","mancard.png","indoorcard2.png","outdoorcard2.png","scene","face1","scene1","scene2","face2","face1","obj1","obj2",503,1,24.59178082,1
"MotER_503","Test","2","2","730","1","2","1","face1face2","None","mooncard.png","jupitercard.png","womancard2.png","mancard.png","indoorcard2.png","outdoorcard2.png","scene","face2","scene1","scene2","face2","face1","obj1","obj2",503,1,24.59178082,1
"MotER_503","Test","9","1","1931","1","2","1","face2scene1","None","mooncard.png","jupitercard.png","womancard2.png","mancard.png","indoorcard2.png","outdoorcard2.png","scene","face2","scene1","scene2","face2","face1","obj1","obj2",503,1,24.59178082,1
"MotER_503","Test","28","2","735","1","2","1","obj2face2","None","mooncard.png","jupitercard.png","womancard2.png","mancard.png","indoorcard2.png","outdoorcard2.png","scene","face2","scene1","scene2","face2","face1","obj1","obj2",503,1,24.59178082,1
"MotER_503","Test","16","1","682","1","2","1","scene1obj2","None","mooncard.png","jupitercard.png","womancard2.png","mancard.png","indoorcard2.png","outdoorcard2.png","scene","scene1","scene1","scene2","face2","face1","obj1","obj2",503,1,24.59178082,1
"MotER_503","Test","29","1","991","1","2","1","face2obj2","None","mooncard.png","jupitercard.png","womancard2.png","mancard.png","indoorcard2.png","outdoorcard2.png","scene","face2","scene1","scene2","face2","face1","obj1","obj2",503,1,24.59178082,1
"MotER_503","Test","11","2","1516","1","2","1","face1scene2","None","mooncard.png","jupitercard.png","womancard2.png","mancard.png","indoorcard2.png","outdoorcard2.png","scene","scene2","scene1","scene2","face2","face1","obj1","obj2",503,1,24.59178082,1
"MotER_503","Test","22","1","754","1","2","1","obj1face1","None","mooncard.png","jupitercard.png","womancard2.png","mancard.png","indoorcard2.png","outdoorcard2.png","scene","obj1","scene1","scene2","face2","face1","obj1","obj2",503,1,24.59178082,1
"MotER_503","Test","12","2","702","1","2","1","scene2face2","None","mooncard.png","jupitercard.png","womancard2.png","mancard.png","indoorcard2.png","outdoorcard2.png","scene","face2","scene1","scene2","face2","face1","obj1","obj2",503,1,24.59178082,1
"MotER_503","Test","7","2","1948","1","2","1","face1scene1","None","mooncard.png","jupitercard.png","womancard2.png","mancard.png","indoorcard2.png","outdoorcard2.png","scene","scene1","scene1","scene2","face2","face1","obj1","obj2",503,1,24.59178082,1
"MotER_503","Test","25","2","786","1","2","1","face2obj1","None","mooncard.png","jupitercard.png","womancard2.png","mancard.png","indoorcard2.png","outdoorcard2.png","scene","obj1","scene1","scene2","face2","face1","obj1","obj2",503,1,24.59178082,1
"MotER_503","Test","8","2","1693","1","2","1","scene1face2","None","mooncard.png","jupitercard.png","womancard2.png","mancard.png","indoorcard2.png","outdoorcard2.png","scene","face2","scene1","scene2","face2","face1","obj1","obj2",503,1,24.59178082,1
"MotER_503","Test","5","2","840","1","2","1","scene2scene1","None","mooncard.png","jupitercard.png","womancard2.png","mancard.png","indoorcard2.png","outdoorcard2.png","scene","scene1","scene1","scene2","face2","face1","obj1","obj2",503,1,24.59178082,1
"MotER_503","Test","21","2","995","1","2","1","obj2scene2","None","mooncard.png","jupitercard.png","womancard2.png","mancard.png","indoorcard2.png","outdoorcard2.png","scene","scene2","scene1","scene2","face2","face1","obj1","obj2",503,1,24.59178082,1
"MotER_503","Test","20","1","961","1","2","1","scene2obj2","None","mooncard.png","jupitercard.png","womancard2.png","mancard.png","indoorcard2.png","outdoorcard2.png","scene","scene2","scene1","scene2","face2","face1","obj1","obj2",503,1,24.59178082,1
"MotER_503","Test","18","2","625","1","2","1","scene2obj1","None","mooncard.png","jupitercard.png","womancard2.png","mancard.png","indoorcard2.png","outdoorcard2.png","scene","obj1","scene1","scene2","face2","face1","obj1","obj2",503,1,24.59178082,1
"MotER_503","Test","3","1","682","1","2","1","face2face1","None","mooncard.png","jupitercard.png","womancard2.png","mancard.png","indoorcard2.png","outdoorcard2.png","scene","face2","scene1","scene2","face2","face1","obj1","obj2",503,1,24.59178082,1
"MotER_503","Test","15","2","1132","1","2","1","obj1scene1","None","mooncard.png","jupitercard.png","womancard2.png","mancard.png","indoorcard2.png","outdoorcard2.png","scene","scene1","scene1","scene2","face2","face1","obj1","obj2",503,1,24.59178082,1
"MotER_504","Test","6","2","4873","1","1","1","scene1face1","None","mooncard.png","jupitercard.png","mancard.png","womancard.png","outdoorcard2.png","indoorcard.png","face","face1","face1","face2","scene1","scene2","obj1","obj2",504,0,22.50410959,1
"MotER_504","Test","21","2","3005","1","1","1","obj2scene2","None","mooncard.png","jupitercard.png","mancard.png","womancard.png","outdoorcard2.png","indoorcard.png","face","scene2","face1","face2","scene1","scene2","obj1","obj2",504,0,22.50410959,1
"MotER_504","Test","27","1","946","1","1","1","face1obj2","None","mooncard.png","jupitercard.png","mancard.png","womancard.png","outdoorcard2.png","indoorcard.png","face","face1","face1","face2","scene1","scene2","obj1","obj2",504,0,22.50410959,1
"MotER_504","Test","10","2","750","1","1","1","scene2face1","None","mooncard.png","jupitercard.png","mancard.png","womancard.png","outdoorcard2.png","indoorcard.png","face","face1","face1","face2","scene1","scene2","obj1","obj2",504,0,22.50410959,1
"MotER_504","Test","15","1","2838","1","1","1","obj1scene1","None","mooncard.png","jupitercard.png","mancard.png","womancard.png","outdoorcard2.png","indoorcard.png","face","obj1","face1","face2","scene1","scene2","obj1","obj2",504,0,22.50410959,1
"MotER_504","Test","5","2","4387","1","1","1","scene2scene1","None","mooncard.png","jupitercard.png","mancard.png","womancard.png","outdoorcard2.png","indoorcard.png","face","scene1","face1","face2","scene1","scene2","obj1","obj2",504,0,22.50410959,1
"MotER_504","Test","26","2","962","1","1","1","obj2face1","None","mooncard.png","jupitercard.png","mancard.png","womancard.png","outdoorcard2.png","indoorcard.png","face","face1","face1","face2","scene1","scene2","obj1","obj2",504,0,22.50410959,1
"MotER_504","Test","28","2","1590","1","1","1","obj2face2","None","mooncard.png","jupitercard.png","mancard.png","womancard.png","outdoorcard2.png","indoorcard.png","face","face2","face1","face2","scene1","scene2","obj1","obj2",504,0,22.50410959,1
"MotER_504","Test","17","2","2273","1","1","1","obj2scene1","None","mooncard.png","jupitercard.png","mancard.png","womancard.png","outdoorcard2.png","indoorcard.png","face","scene1","face1","face2","scene1","scene2","obj1","obj2",504,0,22.50410959,1
"MotER_504","Test","14","2","1112","1","1","1","scene1obj1","None","mooncard.png","jupitercard.png","mancard.png","womancard.png","outdoorcard2.png","indoorcard.png","face","obj1","face1","face2","scene1","scene2","obj1","obj2",504,0,22.50410959,1
"MotER_504","Test","0","1","596","1","1","1","obj1obj2","None","mooncard.png","jupitercard.png","mancard.png","womancard.png","outdoorcard2.png","indoorcard.png","face","obj1","face1","face2","scene1","scene2","obj1","obj2",504,0,22.50410959,1
"MotER_504","Test","2","1","805","1","1","1","face1face2","None","mooncard.png","jupitercard.png","mancard.png","womancard.png","outdoorcard2.png","indoorcard.png","face","face1","face1","face2","scene1","scene2","obj1","obj2",504,0,22.50410959,1
"MotER_504","Test","4","1","1049","1","1","1","scene1scene2","None","mooncard.png","jupitercard.png","mancard.png","womancard.png","outdoorcard2.png","indoorcard.png","face","scene1","face1","face2","scene1","scene2","obj1","obj2",504,0,22.50410959,1
"MotER_504","Test","12","1","2782","1","1","1","scene2face2","None","mooncard.png","jupitercard.png","mancard.png","womancard.png","outdoorcard2.png","indoorcard.png","face","scene2","face1","face2","scene1","scene2","obj1","obj2",504,0,22.50410959,1
"MotER_504","Test","19","1","833","1","1","1","obj1scene2","None","mooncard.png","jupitercard.png","mancard.png","womancard.png","outdoorcard2.png","indoorcard.png","face","obj1","face1","face2","scene1","scene2","obj1","obj2",504,0,22.50410959,1
"MotER_504","Test","7","1","1291","1","1","1","face1scene1","None","mooncard.png","jupitercard.png","mancard.png","womancard.png","outdoorcard2.png","indoorcard.png","face","face1","face1","face2","scene1","scene2","obj1","obj2",504,0,22.50410959,1
"MotER_504","Test","29","1","970","1","1","1","face2obj2","None","mooncard.png","jupitercard.png","mancard.png","womancard.png","outdoorcard2.png","indoorcard.png","face","face2","face1","face2","scene1","scene2","obj1","obj2",504,0,22.50410959,1
"MotER_504","Test","3","2","898","1","1","1","face2face1","None","mooncard.png","jupitercard.png","mancard.png","womancard.png","outdoorcard2.png","indoorcard.png","face","face1","face1","face2","scene1","scene2","obj1","obj2",504,0,22.50410959,1
"MotER_504","Test","11","1","825","1","1","1","face1scene2","None","mooncard.png","jupitercard.png","mancard.png","womancard.png","outdoorcard2.png","indoorcard.png","face","face1","face1","face2","scene1","scene2","obj1","obj2",504,0,22.50410959,1
"MotER_504","Test","1","2","713","1","1","1","obj2obj1","None","mooncard.png","jupitercard.png","mancard.png","womancard.png","outdoorcard2.png","indoorcard.png","face","obj1","face1","face2","scene1","scene2","obj1","obj2",504,0,22.50410959,1
"MotER_504","Test","18","2","751","1","1","1","scene2obj1","None","mooncard.png","jupitercard.png","mancard.png","womancard.png","outdoorcard2.png","indoorcard.png","face","obj1","face1","face2","scene1","scene2","obj1","obj2",504,0,22.50410959,1
"MotER_504","Test","25","2","546","1","1","1","face2obj1","None","mooncard.png","jupitercard.png","mancard.png","womancard.png","outdoorcard2.png","indoorcard.png","face","obj1","face1","face2","scene1","scene2","obj1","obj2",504,0,22.50410959,1
"MotER_504","Test","8","1","1487","1","1","1","scene1face2","None","mooncard.png","jupitercard.png","mancard.png","womancard.png","outdoorcard2.png","indoorcard.png","face","scene1","face1","face2","scene1","scene2","obj1","obj2",504,0,22.50410959,1
"MotER_504","Test","22","1","677","1","1","1","obj1face1","None","mooncard.png","jupitercard.png","mancard.png","womancard.png","outdoorcard2.png","indoorcard.png","face","obj1","face1","face2","scene1","scene2","obj1","obj2",504,0,22.50410959,1
"MotER_504","Test","13","2","835","1","1","1","face2scene2","None","mooncard.png","jupitercard.png","mancard.png","womancard.png","outdoorcard2.png","indoorcard.png","face","scene2","face1","face2","scene1","scene2","obj1","obj2",504,0,22.50410959,1
"MotER_504","Test","23","1","1386","1","1","1","face1obj1","None","mooncard.png","jupitercard.png","mancard.png","womancard.png","outdoorcard2.png","indoorcard.png","face","face1","face1","face2","scene1","scene2","obj1","obj2",504,0,22.50410959,1
"MotER_504","Test","24","1","771","1","1","1","obj1face2","None","mooncard.png","jupitercard.png","mancard.png","womancard.png","outdoorcard2.png","indoorcard.png","face","obj1","face1","face2","scene1","scene2","obj1","obj2",504,0,22.50410959,1
"MotER_504","Test","20","1","1732","1","1","1","scene2obj2","None","mooncard.png","jupitercard.png","mancard.png","womancard.png","outdoorcard2.png","indoorcard.png","face","scene2","face1","face2","scene1","scene2","obj1","obj2",504,0,22.50410959,1
"MotER_504","Test","16","1","1746","1","1","1","scene1obj2","None","mooncard.png","jupitercard.png","mancard.png","womancard.png","outdoorcard2.png","indoorcard.png","face","scene1","face1","face2","scene1","scene2","obj1","obj2",504,0,22.50410959,1
"MotER_504","Test","9","2","1139","1","1","1","face2scene1","None","mooncard.png","jupitercard.png","mancard.png","womancard.png","outdoorcard2.png","indoorcard.png","face","scene1","face1","face2","scene1","scene2","obj1","obj2",504,0,22.50410959,1
"MotER_504","Test","6","2","619","1","1","1","scene1face1","None","mooncard.png","jupitercard.png","mancard.png","womancard.png","outdoorcard2.png","indoorcard.png","face","face1","face1","face2","scene1","scene2","obj1","obj2",504,0,22.50410959,1
"MotER_504","Test","21","2","4632","1","1","1","obj2scene2","None","mooncard.png","jupitercard.png","mancard.png","womancard.png","outdoorcard2.png","indoorcard.png","face","scene2","face1","face2","scene1","scene2","obj1","obj2",504,0,22.50410959,1
"MotER_504","Test","27","1","964","1","1","1","face1obj2","None","mooncard.png","jupitercard.png","mancard.png","womancard.png","outdoorcard2.png","indoorcard.png","face","face1","face1","face2","scene1","scene2","obj1","obj2",504,0,22.50410959,1
"MotER_504","Test","10","2","651","1","1","1","scene2face1","None","mooncard.png","jupitercard.png","mancard.png","womancard.png","outdoorcard2.png","indoorcard.png","face","face1","face1","face2","scene1","scene2","obj1","obj2",504,0,22.50410959,1
"MotER_504","Test","15","1","574","1","1","1","obj1scene1","None","mooncard.png","jupitercard.png","mancard.png","womancard.png","outdoorcard2.png","indoorcard.png","face","obj1","face1","face2","scene1","scene2","obj1","obj2",504,0,22.50410959,1
"MotER_504","Test","5","2","1069","1","1","1","scene2scene1","None","mooncard.png","jupitercard.png","mancard.png","womancard.png","outdoorcard2.png","indoorcard.png","face","scene1","face1","face2","scene1","scene2","obj1","obj2",504,0,22.50410959,1
"MotER_504","Test","26","2","760","1","1","1","obj2face1","None","mooncard.png","jupitercard.png","mancard.png","womancard.png","outdoorcard2.png","indoorcard.png","face","face1","face1","face2","scene1","scene2","obj1","obj2",504,0,22.50410959,1
"MotER_504","Test","28","2","938","1","1","1","obj2face2","None","mooncard.png","jupitercard.png","mancard.png","womancard.png","outdoorcard2.png","indoorcard.png","face","face2","face1","face2","scene1","scene2","obj1","obj2",504,0,22.50410959,1
